welcome.started,welcome.stopped,ID-Nummer,Alter,Geschlecht (optional),date,expName,psychopyVersion,OS,frameRate,participant,load_guess_conditions.started,load_guess_conditions.stopped,guess_conditions.thisRepN,guess_conditions.thisTrialN,guess_conditions.thisN,guess_conditions.thisIndex,guess_conditions.ran,guess_trial,randomizer,instructions1.started,instructions1.stopped,instruction1_key.keys,instruction1_key.rt,instruction1_key.duration,instructions2.started,instructions2.stopped,instruction2_key.keys,instruction2_key.rt,instruction2_key.duration,instructions3.started,instructions3.stopped,instruction3_key.keys,instruction3_key.rt,instruction3_key.duration,instructions4.started,instructions4.stopped,instruction4_key.keys,instruction4_key.rt,instruction4_key.duration,instructions5.started,instructions5.stopped,instruction5_key.keys,instruction5_key.rt,instruction5_key.duration,iti_learning_practice.started,iti_learning_practice.stopped,guess.started,guess.stopped,end_guess.keys,guess_response.started,guess_response.stopped,guess_reached.keys,feedback_guess.started,feedback_guess.stopped,trial_type,encode.started,encode.stopped,end_encoding.keys,practice_trials.thisRepN,practice_trials.thisTrialN,practice_trials.thisN,practice_trials.thisIndex,practice_trials.ran,cue,target
0.0003,2.9922,047032,23,,2024-12-12_16h33.23.209,guess,2024.2.4,Win32,59.88023952,2399,,,,,,,,,,,,,,,,,,,,,,,,,,,,,,,,,,,,,,,,,,,,,,,,,,,,,,,
,,047032,23,,2024-12-12_16h33.23.209,guess,2024.2.4,Win32,59.88023952,2399,3.0336,3.0337,0,0,0,13,1,Guess,0.54823733,,,,,,,,,,,,,,,,,,,,,,,,,,,,,,,,,,,,,,,,,,,,,,
,,047032,23,,2024-12-12_16h33.23.209,guess,2024.2.4,Win32,59.88023952,2399,3.0341,3.0341,0,1,1,17,1,Guess,0.104437097,,,,,,,,,,,,,,,,,,,,,,,,,,,,,,,,,,,,,,,,,,,,,,
,,047032,23,,2024-12-12_16h33.23.209,guess,2024.2.4,Win32,59.88023952,2399,3.0343,3.0343,0,2,2,12,1,Read,0.24480295,,,,,,,,,,,,,,,,,,,,,,,,,,,,,,,,,,,,,,,,,,,,,,
,,047032,23,,2024-12-12_16h33.23.209,guess,2024.2.4,Win32,59.88023952,2399,3.0345,3.0345,0,3,3,38,1,Read,0.815852513,,,,,,,,,,,,,,,,,,,,,,,,,,,,,,,,,,,,,,,,,,,,,,
,,047032,23,,2024-12-12_16h33.23.209,guess,2024.2.4,Win32,59.88023952,2399,3.0346,3.0346,0,4,4,32,1,Read,0.436678806,,,,,,,,,,,,,,,,,,,,,,,,,,,,,,,,,,,,,,,,,,,,,,
,,047032,23,,2024-12-12_16h33.23.209,guess,2024.2.4,Win32,59.88023952,2399,3.0348,3.0348,0,5,5,16,1,Read,0.812207018,,,,,,,,,,,,,,,,,,,,,,,,,,,,,,,,,,,,,,,,,,,,,,
,,047032,23,,2024-12-12_16h33.23.209,guess,2024.2.4,Win32,59.88023952,2399,3.035,3.035,0,6,6,36,1,Read,0.314840019,,,,,,,,,,,,,,,,,,,,,,,,,,,,,,,,,,,,,,,,,,,,,,
,,047032,23,,2024-12-12_16h33.23.209,guess,2024.2.4,Win32,59.88023952,2399,3.0351,3.0351,0,7,7,27,1,Guess,0.681161334,,,,,,,,,,,,,,,,,,,,,,,,,,,,,,,,,,,,,,,,,,,,,,
,,047032,23,,2024-12-12_16h33.23.209,guess,2024.2.4,Win32,59.88023952,2399,3.0352,3.0352,0,8,8,23,1,Guess,0.781440522,,,,,,,,,,,,,,,,,,,,,,,,,,,,,,,,,,,,,,,,,,,,,,
,,047032,23,,2024-12-12_16h33.23.209,guess,2024.2.4,Win32,59.88023952,2399,3.0354,3.0354,0,9,9,15,1,Guess,0.075947494,,,,,,,,,,,,,,,,,,,,,,,,,,,,,,,,,,,,,,,,,,,,,,
,,047032,23,,2024-12-12_16h33.23.209,guess,2024.2.4,Win32,59.88023952,2399,3.0355,3.0355,0,10,10,10,1,Read,0.613164444,,,,,,,,,,,,,,,,,,,,,,,,,,,,,,,,,,,,,,,,,,,,,,
,,047032,23,,2024-12-12_16h33.23.209,guess,2024.2.4,Win32,59.88023952,2399,3.0356,3.0356,0,11,11,35,1,Guess,0.257554014,,,,,,,,,,,,,,,,,,,,,,,,,,,,,,,,,,,,,,,,,,,,,,
,,047032,23,,2024-12-12_16h33.23.209,guess,2024.2.4,Win32,59.88023952,2399,3.0357,3.0357,0,12,12,24,1,Read,0.036047544,,,,,,,,,,,,,,,,,,,,,,,,,,,,,,,,,,,,,,,,,,,,,,
,,047032,23,,2024-12-12_16h33.23.209,guess,2024.2.4,Win32,59.88023952,2399,3.0359,3.0359,0,13,13,5,1,Guess,0.01873447,,,,,,,,,,,,,,,,,,,,,,,,,,,,,,,,,,,,,,,,,,,,,,
,,047032,23,,2024-12-12_16h33.23.209,guess,2024.2.4,Win32,59.88023952,2399,3.0359,3.0359,0,14,14,0,1,Read,0.51513309,,,,,,,,,,,,,,,,,,,,,,,,,,,,,,,,,,,,,,,,,,,,,,
,,047032,23,,2024-12-12_16h33.23.209,guess,2024.2.4,Win32,59.88023952,2399,3.036,3.036,0,15,15,4,1,Read,0.640402041,,,,,,,,,,,,,,,,,,,,,,,,,,,,,,,,,,,,,,,,,,,,,,
,,047032,23,,2024-12-12_16h33.23.209,guess,2024.2.4,Win32,59.88023952,2399,3.0361,3.0361,0,16,16,19,1,Guess,0.096595818,,,,,,,,,,,,,,,,,,,,,,,,,,,,,,,,,,,,,,,,,,,,,,
,,047032,23,,2024-12-12_16h33.23.209,guess,2024.2.4,Win32,59.88023952,2399,3.0363,3.0363,0,17,17,33,1,Guess,0.893806662,,,,,,,,,,,,,,,,,,,,,,,,,,,,,,,,,,,,,,,,,,,,,,
,,047032,23,,2024-12-12_16h33.23.209,guess,2024.2.4,Win32,59.88023952,2399,3.0364,3.0364,0,18,18,21,1,Guess,0.38751911,,,,,,,,,,,,,,,,,,,,,,,,,,,,,,,,,,,,,,,,,,,,,,
,,047032,23,,2024-12-12_16h33.23.209,guess,2024.2.4,Win32,59.88023952,2399,3.0365,3.0365,0,19,19,6,1,Read,0.777201569,,,,,,,,,,,,,,,,,,,,,,,,,,,,,,,,,,,,,,,,,,,,,,
,,047032,23,,2024-12-12_16h33.23.209,guess,2024.2.4,Win32,59.88023952,2399,3.0366,3.0366,0,20,20,37,1,Guess,0.585062366,,,,,,,,,,,,,,,,,,,,,,,,,,,,,,,,,,,,,,,,,,,,,,
,,047032,23,,2024-12-12_16h33.23.209,guess,2024.2.4,Win32,59.88023952,2399,3.0366,3.0367,0,21,21,29,1,Guess,0.671992113,,,,,,,,,,,,,,,,,,,,,,,,,,,,,,,,,,,,,,,,,,,,,,
,,047032,23,,2024-12-12_16h33.23.209,guess,2024.2.4,Win32,59.88023952,2399,3.0368,3.0368,0,22,22,34,1,Read,0.112797892,,,,,,,,,,,,,,,,,,,,,,,,,,,,,,,,,,,,,,,,,,,,,,
,,047032,23,,2024-12-12_16h33.23.209,guess,2024.2.4,Win32,59.88023952,2399,3.037,3.037,0,23,23,1,1,Guess,0.952162206,,,,,,,,,,,,,,,,,,,,,,,,,,,,,,,,,,,,,,,,,,,,,,
,,047032,23,,2024-12-12_16h33.23.209,guess,2024.2.4,Win32,59.88023952,2399,3.0371,3.0371,0,24,24,9,1,Guess,0.481509697,,,,,,,,,,,,,,,,,,,,,,,,,,,,,,,,,,,,,,,,,,,,,,
,,047032,23,,2024-12-12_16h33.23.209,guess,2024.2.4,Win32,59.88023952,2399,3.0371,3.0371,0,25,25,25,1,Guess,0.077972835,,,,,,,,,,,,,,,,,,,,,,,,,,,,,,,,,,,,,,,,,,,,,,
,,047032,23,,2024-12-12_16h33.23.209,guess,2024.2.4,Win32,59.88023952,2399,3.0372,3.0372,0,26,26,31,1,Guess,0.092580742,,,,,,,,,,,,,,,,,,,,,,,,,,,,,,,,,,,,,,,,,,,,,,
,,047032,23,,2024-12-12_16h33.23.209,guess,2024.2.4,Win32,59.88023952,2399,3.0373,3.0373,0,27,27,7,1,Guess,0.644792097,,,,,,,,,,,,,,,,,,,,,,,,,,,,,,,,,,,,,,,,,,,,,,
,,047032,23,,2024-12-12_16h33.23.209,guess,2024.2.4,Win32,59.88023952,2399,3.0374,3.0374,0,28,28,3,1,Guess,0.256354522,,,,,,,,,,,,,,,,,,,,,,,,,,,,,,,,,,,,,,,,,,,,,,
,,047032,23,,2024-12-12_16h33.23.209,guess,2024.2.4,Win32,59.88023952,2399,3.0375,3.0375,0,29,29,18,1,Read,0.67780954,,,,,,,,,,,,,,,,,,,,,,,,,,,,,,,,,,,,,,,,,,,,,,
,,047032,23,,2024-12-12_16h33.23.209,guess,2024.2.4,Win32,59.88023952,2399,3.0377,3.0377,0,30,30,30,1,Read,0.191181817,,,,,,,,,,,,,,,,,,,,,,,,,,,,,,,,,,,,,,,,,,,,,,
,,047032,23,,2024-12-12_16h33.23.209,guess,2024.2.4,Win32,59.88023952,2399,3.0377,3.0377,0,31,31,26,1,Read,0.055311196,,,,,,,,,,,,,,,,,,,,,,,,,,,,,,,,,,,,,,,,,,,,,,
,,047032,23,,2024-12-12_16h33.23.209,guess,2024.2.4,Win32,59.88023952,2399,3.0378,3.0378,0,32,32,28,1,Read,0.516277429,,,,,,,,,,,,,,,,,,,,,,,,,,,,,,,,,,,,,,,,,,,,,,
,,047032,23,,2024-12-12_16h33.23.209,guess,2024.2.4,Win32,59.88023952,2399,3.0379,3.0379,0,33,33,11,1,Guess,0.805573122,,,,,,,,,,,,,,,,,,,,,,,,,,,,,,,,,,,,,,,,,,,,,,
,,047032,23,,2024-12-12_16h33.23.209,guess,2024.2.4,Win32,59.88023952,2399,3.0381,3.0381,0,34,34,2,1,Read,0.02347598,,,,,,,,,,,,,,,,,,,,,,,,,,,,,,,,,,,,,,,,,,,,,,
,,047032,23,,2024-12-12_16h33.23.209,guess,2024.2.4,Win32,59.88023952,2399,3.0382,3.0382,0,35,35,22,1,Read,0.483519141,,,,,,,,,,,,,,,,,,,,,,,,,,,,,,,,,,,,,,,,,,,,,,
,,047032,23,,2024-12-12_16h33.23.209,guess,2024.2.4,Win32,59.88023952,2399,3.0383,3.0383,0,36,36,14,1,Read,0.118489356,,,,,,,,,,,,,,,,,,,,,,,,,,,,,,,,,,,,,,,,,,,,,,
,,047032,23,,2024-12-12_16h33.23.209,guess,2024.2.4,Win32,59.88023952,2399,3.0384,3.0384,0,37,37,8,1,Read,0.196287165,,,,,,,,,,,,,,,,,,,,,,,,,,,,,,,,,,,,,,,,,,,,,,
,,047032,23,,2024-12-12_16h33.23.209,guess,2024.2.4,Win32,59.88023952,2399,3.0385,3.0385,0,38,38,20,1,Read,0.85362492,,,,,,,,,,,,,,,,,,,,,,,,,,,,,,,,,,,,,,,,,,,,,,
,,047032,23,,2024-12-12_16h33.23.209,guess,2024.2.4,Win32,59.88023952,2399,,,,,,,,,,3.0388,10.4302,space,7.3549,,,,,,,,,,,,,,,,,,,,,,,,,,,,,,,,,,,,,,,,,,
,,047032,23,,2024-12-12_16h33.23.209,guess,2024.2.4,Win32,59.88023952,2399,,,,,,,,,,,,,,,10.4305,12.959,space,2.5009,,,,,,,,,,,,,,,,,,,,,,,,,,,,,,,,,,,,,
,,047032,23,,2024-12-12_16h33.23.209,guess,2024.2.4,Win32,59.88023952,2399,,,,,,,,,,,,,,,,,,,,12.9592,14.5496,space,1.5526,,,,,,,,,,,,,,,,,,,,,,,,,,,,,,,,
,,047032,23,,2024-12-12_16h33.23.209,guess,2024.2.4,Win32,59.88023952,2399,,,,,,,,,,,,,,,,,,,,,,,,,14.5498,15.7673,space,1.1772,,,,,,,,,,,,,,,,,,,,,,,,,,,
,,047032,23,,2024-12-12_16h33.23.209,guess,2024.2.4,Win32,59.88023952,2399,,,,,,,,,,,,,,,,,,,,,,,,,,,,,,15.7678,16.4843,space,0.6775,,,,,,,,,,,,,,,,,,,,,,
,,047032,23,,2024-12-12_16h33.23.209,guess,2024.2.4,Win32,59.88023952,2399,,,,,,,,,,,,,,,,,,,,,,,,,,,,,,,,,,,16.4959,18.4856,18.4872,18.4905,,18.4908,18.4931,,18.4933,18.4941,Read,18.4944,21.4883,,0,0,0,0,1,Wand,Fenster
