welcome.started,welcome.stopped,ID-Nummer,Alter,Geschlecht (optional),date,expName,psychopyVersion,OS,frameRate,load_guess_conditions.started,load_guess_conditions.stopped,guess_conditions.thisRepN,guess_conditions.thisTrialN,guess_conditions.thisN,guess_conditions.thisIndex,guess_conditions.ran,guess_trial,randomizer,instructions1.started,instructions1.stopped,instruction1_key.keys,instruction1_key.rt,instruction1_key.duration,instructions2.started,instructions2.stopped,instruction2_key.keys,instruction2_key.rt,instruction2_key.duration,instructions3.started,instructions3.stopped,instruction3_key.keys,instruction3_key.rt,instruction3_key.duration,instructions4.started,instructions4.stopped,instruction4_key.keys,instruction4_key.rt,instruction4_key.duration,instructions5.started,instructions5.stopped,instruction5_key.keys,instruction5_key.rt,instruction5_key.duration,iti_learning_practice.started,iti_learning_practice.stopped,guess.started,guess.stopped,end_guess.keys,guess_response.started,guess_response.stopped,guess_reached.keys,feedback_guess.started,feedback_guess.stopped,trial_type,encode.started,encode.stopped,end_encoding.keys,practice_trials.thisRepN,practice_trials.thisTrialN,practice_trials.thisN,practice_trials.thisIndex,practice_trials.ran,cue,target
0,3,196342,g,g,2024-12-12_15h12.28.363,guess,2024.2.4,Win32,89.92805755,,,,,,,,,,,,,,,,,,,,,,,,,,,,,,,,,,,,,,,,,,,,,,,,,,,,,,,
,,196342,g,g,2024-12-12_15h12.28.363,guess,2024.2.4,Win32,89.92805755,3.017,3.017,0,0,0,0,1,Read,0.51513309,,,,,,,,,,,,,,,,,,,,,,,,,,,,,,,,,,,,,,,,,,,,,,
,,196342,g,g,2024-12-12_15h12.28.363,guess,2024.2.4,Win32,89.92805755,3.018,3.018,0,1,1,10,1,Read,0.613164444,,,,,,,,,,,,,,,,,,,,,,,,,,,,,,,,,,,,,,,,,,,,,,
,,196342,g,g,2024-12-12_15h12.28.363,guess,2024.2.4,Win32,89.92805755,3.018,3.018,0,2,2,8,1,Read,0.196287165,,,,,,,,,,,,,,,,,,,,,,,,,,,,,,,,,,,,,,,,,,,,,,
,,196342,g,g,2024-12-12_15h12.28.363,guess,2024.2.4,Win32,89.92805755,3.018,3.018,0,3,3,24,1,Read,0.036047544,,,,,,,,,,,,,,,,,,,,,,,,,,,,,,,,,,,,,,,,,,,,,,
,,196342,g,g,2024-12-12_15h12.28.363,guess,2024.2.4,Win32,89.92805755,3.018,3.018,0,4,4,28,1,Read,0.516277429,,,,,,,,,,,,,,,,,,,,,,,,,,,,,,,,,,,,,,,,,,,,,,
,,196342,g,g,2024-12-12_15h12.28.363,guess,2024.2.4,Win32,89.92805755,3.018,3.018,0,5,5,35,1,Guess,0.257554014,,,,,,,,,,,,,,,,,,,,,,,,,,,,,,,,,,,,,,,,,,,,,,
,,196342,g,g,2024-12-12_15h12.28.363,guess,2024.2.4,Win32,89.92805755,3.018,3.018,0,6,6,3,1,Guess,0.256354522,,,,,,,,,,,,,,,,,,,,,,,,,,,,,,,,,,,,,,,,,,,,,,
,,196342,g,g,2024-12-12_15h12.28.363,guess,2024.2.4,Win32,89.92805755,3.018,3.018,0,7,7,34,1,Read,0.112797892,,,,,,,,,,,,,,,,,,,,,,,,,,,,,,,,,,,,,,,,,,,,,,
,,196342,g,g,2024-12-12_15h12.28.363,guess,2024.2.4,Win32,89.92805755,3.019,3.019,0,8,8,22,1,Read,0.483519141,,,,,,,,,,,,,,,,,,,,,,,,,,,,,,,,,,,,,,,,,,,,,,
,,196342,g,g,2024-12-12_15h12.28.363,guess,2024.2.4,Win32,89.92805755,3.019,3.019,0,9,9,26,1,Read,0.055311196,,,,,,,,,,,,,,,,,,,,,,,,,,,,,,,,,,,,,,,,,,,,,,
,,196342,g,g,2024-12-12_15h12.28.363,guess,2024.2.4,Win32,89.92805755,3.02,3.02,0,10,10,7,1,Guess,0.644792097,,,,,,,,,,,,,,,,,,,,,,,,,,,,,,,,,,,,,,,,,,,,,,
,,196342,g,g,2024-12-12_15h12.28.363,guess,2024.2.4,Win32,89.92805755,3.02,3.02,0,11,11,32,1,Read,0.436678806,,,,,,,,,,,,,,,,,,,,,,,,,,,,,,,,,,,,,,,,,,,,,,
,,196342,g,g,2024-12-12_15h12.28.363,guess,2024.2.4,Win32,89.92805755,3.02,3.02,0,12,12,25,1,Guess,0.077972835,,,,,,,,,,,,,,,,,,,,,,,,,,,,,,,,,,,,,,,,,,,,,,
,,196342,g,g,2024-12-12_15h12.28.363,guess,2024.2.4,Win32,89.92805755,3.02,3.02,0,13,13,29,1,Guess,0.671992113,,,,,,,,,,,,,,,,,,,,,,,,,,,,,,,,,,,,,,,,,,,,,,
,,196342,g,g,2024-12-12_15h12.28.363,guess,2024.2.4,Win32,89.92805755,3.02,3.02,0,14,14,36,1,Read,0.314840019,,,,,,,,,,,,,,,,,,,,,,,,,,,,,,,,,,,,,,,,,,,,,,
,,196342,g,g,2024-12-12_15h12.28.363,guess,2024.2.4,Win32,89.92805755,3.02,3.02,0,15,15,19,1,Guess,0.096595818,,,,,,,,,,,,,,,,,,,,,,,,,,,,,,,,,,,,,,,,,,,,,,
,,196342,g,g,2024-12-12_15h12.28.363,guess,2024.2.4,Win32,89.92805755,3.02,3.02,0,16,16,18,1,Read,0.67780954,,,,,,,,,,,,,,,,,,,,,,,,,,,,,,,,,,,,,,,,,,,,,,
,,196342,g,g,2024-12-12_15h12.28.363,guess,2024.2.4,Win32,89.92805755,3.02,3.02,0,17,17,27,1,Guess,0.681161334,,,,,,,,,,,,,,,,,,,,,,,,,,,,,,,,,,,,,,,,,,,,,,
,,196342,g,g,2024-12-12_15h12.28.363,guess,2024.2.4,Win32,89.92805755,3.02,3.02,0,18,18,20,1,Read,0.85362492,,,,,,,,,,,,,,,,,,,,,,,,,,,,,,,,,,,,,,,,,,,,,,
,,196342,g,g,2024-12-12_15h12.28.363,guess,2024.2.4,Win32,89.92805755,3.02,3.02,0,19,19,5,1,Guess,0.01873447,,,,,,,,,,,,,,,,,,,,,,,,,,,,,,,,,,,,,,,,,,,,,,
,,196342,g,g,2024-12-12_15h12.28.363,guess,2024.2.4,Win32,89.92805755,3.02,3.02,0,20,20,17,1,Guess,0.104437097,,,,,,,,,,,,,,,,,,,,,,,,,,,,,,,,,,,,,,,,,,,,,,
,,196342,g,g,2024-12-12_15h12.28.363,guess,2024.2.4,Win32,89.92805755,3.02,3.02,0,21,21,30,1,Read,0.191181817,,,,,,,,,,,,,,,,,,,,,,,,,,,,,,,,,,,,,,,,,,,,,,
,,196342,g,g,2024-12-12_15h12.28.363,guess,2024.2.4,Win32,89.92805755,3.021,3.021,0,22,22,37,1,Guess,0.585062366,,,,,,,,,,,,,,,,,,,,,,,,,,,,,,,,,,,,,,,,,,,,,,
,,196342,g,g,2024-12-12_15h12.28.363,guess,2024.2.4,Win32,89.92805755,3.021,3.021,0,23,23,6,1,Read,0.777201569,,,,,,,,,,,,,,,,,,,,,,,,,,,,,,,,,,,,,,,,,,,,,,
,,196342,g,g,2024-12-12_15h12.28.363,guess,2024.2.4,Win32,89.92805755,3.021,3.021,0,24,24,15,1,Guess,0.075947494,,,,,,,,,,,,,,,,,,,,,,,,,,,,,,,,,,,,,,,,,,,,,,
,,196342,g,g,2024-12-12_15h12.28.363,guess,2024.2.4,Win32,89.92805755,3.021,3.021,0,25,25,12,1,Read,0.24480295,,,,,,,,,,,,,,,,,,,,,,,,,,,,,,,,,,,,,,,,,,,,,,
,,196342,g,g,2024-12-12_15h12.28.363,guess,2024.2.4,Win32,89.92805755,3.021,3.021,0,26,26,31,1,Guess,0.092580742,,,,,,,,,,,,,,,,,,,,,,,,,,,,,,,,,,,,,,,,,,,,,,
,,196342,g,g,2024-12-12_15h12.28.363,guess,2024.2.4,Win32,89.92805755,3.021,3.021,0,27,27,11,1,Guess,0.805573122,,,,,,,,,,,,,,,,,,,,,,,,,,,,,,,,,,,,,,,,,,,,,,
,,196342,g,g,2024-12-12_15h12.28.363,guess,2024.2.4,Win32,89.92805755,3.021,3.021,0,28,28,23,1,Guess,0.781440522,,,,,,,,,,,,,,,,,,,,,,,,,,,,,,,,,,,,,,,,,,,,,,
,,196342,g,g,2024-12-12_15h12.28.363,guess,2024.2.4,Win32,89.92805755,3.021,3.021,0,29,29,9,1,Guess,0.481509697,,,,,,,,,,,,,,,,,,,,,,,,,,,,,,,,,,,,,,,,,,,,,,
,,196342,g,g,2024-12-12_15h12.28.363,guess,2024.2.4,Win32,89.92805755,3.021,3.021,0,30,30,4,1,Read,0.640402041,,,,,,,,,,,,,,,,,,,,,,,,,,,,,,,,,,,,,,,,,,,,,,
,,196342,g,g,2024-12-12_15h12.28.363,guess,2024.2.4,Win32,89.92805755,3.021,3.021,0,31,31,21,1,Guess,0.38751911,,,,,,,,,,,,,,,,,,,,,,,,,,,,,,,,,,,,,,,,,,,,,,
,,196342,g,g,2024-12-12_15h12.28.363,guess,2024.2.4,Win32,89.92805755,3.021,3.022,0,32,32,14,1,Read,0.118489356,,,,,,,,,,,,,,,,,,,,,,,,,,,,,,,,,,,,,,,,,,,,,,
,,196342,g,g,2024-12-12_15h12.28.363,guess,2024.2.4,Win32,89.92805755,3.022,3.022,0,33,33,2,1,Read,0.02347598,,,,,,,,,,,,,,,,,,,,,,,,,,,,,,,,,,,,,,,,,,,,,,
,,196342,g,g,2024-12-12_15h12.28.363,guess,2024.2.4,Win32,89.92805755,3.022,3.022,0,34,34,1,1,Guess,0.952162206,,,,,,,,,,,,,,,,,,,,,,,,,,,,,,,,,,,,,,,,,,,,,,
,,196342,g,g,2024-12-12_15h12.28.363,guess,2024.2.4,Win32,89.92805755,3.022,3.022,0,35,35,38,1,Read,0.815852513,,,,,,,,,,,,,,,,,,,,,,,,,,,,,,,,,,,,,,,,,,,,,,
,,196342,g,g,2024-12-12_15h12.28.363,guess,2024.2.4,Win32,89.92805755,3.022,3.022,0,36,36,16,1,Read,0.812207018,,,,,,,,,,,,,,,,,,,,,,,,,,,,,,,,,,,,,,,,,,,,,,
,,196342,g,g,2024-12-12_15h12.28.363,guess,2024.2.4,Win32,89.92805755,3.022,3.022,0,37,37,33,1,Guess,0.893806662,,,,,,,,,,,,,,,,,,,,,,,,,,,,,,,,,,,,,,,,,,,,,,
,,196342,g,g,2024-12-12_15h12.28.363,guess,2024.2.4,Win32,89.92805755,3.022,3.022,0,38,38,13,1,Guess,0.54823733,,,,,,,,,,,,,,,,,,,,,,,,,,,,,,,,,,,,,,,,,,,,,,
,,196342,g,g,2024-12-12_15h12.28.363,guess,2024.2.4,Win32,89.92805755,,,,,,,,,,3.022,6.912,space,3.834,,,,,,,,,,,,,,,,,,,,,,,,,,,,,,,,,,,,,,,,,,
,,196342,g,g,2024-12-12_15h12.28.363,guess,2024.2.4,Win32,89.92805755,,,,,,,,,,,,,,,6.912,8.123,space,1.162,,,,,,,,,,,,,,,,,,,,,,,,,,,,,,,,,,,,,
,,196342,g,g,2024-12-12_15h12.28.363,guess,2024.2.4,Win32,89.92805755,,,,,,,,,,,,,,,,,,,,8.123,9.245,space,1.079,,,,,,,,,,,,,,,,,,,,,,,,,,,,,,,,
,,196342,g,g,2024-12-12_15h12.28.363,guess,2024.2.4,Win32,89.92805755,,,,,,,,,,,,,,,,,,,,,,,,,9.245,14.712,space,5.407,,,,,,,,,,,,,,,,,,,,,,,,,,,
,,196342,g,g,2024-12-12_15h12.28.363,guess,2024.2.4,Win32,89.92805755,,,,,,,,,,,,,,,,,,,,,,,,,,,,,,14.712,15.145,space,0.359,,,,,,,,,,,,,,,,,,,,,,
,,196342,g,g,2024-12-12_15h12.28.363,guess,2024.2.4,Win32,89.92805755,,,,,,,,,,,,,,,,,,,,,,,,,,,,,,,,,,,15.153,17.146,17.146,17.148,,17.148,17.15,,17.15,17.15,Read,17.15,20.145,,0,0,0,1,1,Frühstück,Brot
,,196342,g,g,2024-12-12_15h12.28.363,guess,2024.2.4,Win32,89.92805755,,,,,,,,,,,,,,,,,,,,,,,,,,,,,,,,,,,20.146,22.145,22.146,25.146,,25.146,27.294,,27.294,29.303,Guess,29.304,31.1,,0,1,1,0,1,Wand,Fenster
,,196342,g,g,2024-12-12_15h12.28.363,guess,2024.2.4,Win32,89.92805755,,,,,,,,,,,,,,,,,,,,,,,,,,,,,,,,,,,31.1,34.301,34.302,37.301,,37.301,40.062,,40.062,42.071,Guess,42.072,44.701,,0,2,2,3,1,Park,Baum
,,196342,g,g,2024-12-12_15h12.28.363,guess,2024.2.4,Win32,89.92805755,,,,,,,,,,,,,,,,,,,,,,,,,,,,,,,,,,,44.703,47.222,47.226,47.228,,47.229,47.229,,47.229,47.229,Read,47.23,49.542,,0,3,3,2,1,Hund,Pfote
