welcome.started,welcome.stopped,ID-Nummer,Alter,Geschlecht (optional),date,expName,psychopyVersion,OS,frameRate,participant,load_guess_conditions.started,load_guess_conditions.stopped,guess_conditions.thisRepN,guess_conditions.thisTrialN,guess_conditions.thisN,guess_conditions.thisIndex,guess_conditions.ran,guess_trial,randomizer,instructions1.started,instructions1.stopped,instruction1_key.keys,instruction1_key.rt,instruction1_key.duration,instructions2.started,instructions2.stopped,instruction2_key.keys,instruction2_key.rt,instruction2_key.duration,instructions3.started,instructions3.stopped,instruction3_key.keys,instruction3_key.rt,instruction3_key.duration,instructions4.started,instructions4.stopped,instruction4_key.keys,instruction4_key.rt,instruction4_key.duration,instructions5.started,instructions5.stopped,instruction5_key.keys,instruction5_key.rt,instruction5_key.duration,iti_learning_practice.started,iti_learning_practice.stopped,guess.started,guess.stopped,end_guess.keys,guess_response.started,guess_response.stopped,guess_reached.keys,feedback_guess.started,feedback_guess.stopped,trial_type,encode.started,encode.stopped,end_encoding.keys,practice_trials.thisRepN,practice_trials.thisTrialN,practice_trials.thisN,practice_trials.thisIndex,practice_trials.ran,cue,target,guess_reached.rt,guess_reached.duration,start_task.started,start_task.stopped,start_key.keys,start_key.rt,start_key.duration,iti_learning.started,iti_learning.stopped,task_break.started,task_break.stopped,task_break_resp.keys,learning_trials.thisRepN,learning_trials.thisTrialN,learning_trials.thisN,learning_trials.thisIndex,learning_trials.ran,task_break_resp.rt,task_break_resp.duration
0,2.994,246684,20,,2024-12-12_17h53.41.978,guess,2024.2.4,Win32,60.16847172,2450,,,,,,,,,,,,,,,,,,,,,,,,,,,,,,,,,,,,,,,,,,,,,,,,,,,,,,,,,,,,,,,,,,,,,,,,,,
,,246684,20,,2024-12-12_17h53.41.978,guess,2024.2.4,Win32,60.16847172,2450,3.019,3.019,0,0,0,33,1,Guess,0.893806662,,,,,,,,,,,,,,,,,,,,,,,,,,,,,,,,,,,,,,,,,,,,,,,,,,,,,,,,,,,,,,,,,
,,246684,20,,2024-12-12_17h53.41.978,guess,2024.2.4,Win32,60.16847172,2450,3.019,3.019,0,1,1,14,1,Read,0.118489356,,,,,,,,,,,,,,,,,,,,,,,,,,,,,,,,,,,,,,,,,,,,,,,,,,,,,,,,,,,,,,,,,
,,246684,20,,2024-12-12_17h53.41.978,guess,2024.2.4,Win32,60.16847172,2450,3.02,3.02,0,2,2,20,1,Read,0.85362492,,,,,,,,,,,,,,,,,,,,,,,,,,,,,,,,,,,,,,,,,,,,,,,,,,,,,,,,,,,,,,,,,
,,246684,20,,2024-12-12_17h53.41.978,guess,2024.2.4,Win32,60.16847172,2450,3.02,3.02,0,3,3,9,1,Guess,0.481509697,,,,,,,,,,,,,,,,,,,,,,,,,,,,,,,,,,,,,,,,,,,,,,,,,,,,,,,,,,,,,,,,,
,,246684,20,,2024-12-12_17h53.41.978,guess,2024.2.4,Win32,60.16847172,2450,3.02,3.02,0,4,4,4,1,Read,0.640402041,,,,,,,,,,,,,,,,,,,,,,,,,,,,,,,,,,,,,,,,,,,,,,,,,,,,,,,,,,,,,,,,,
,,246684,20,,2024-12-12_17h53.41.978,guess,2024.2.4,Win32,60.16847172,2450,3.021,3.021,0,5,5,8,1,Read,0.196287165,,,,,,,,,,,,,,,,,,,,,,,,,,,,,,,,,,,,,,,,,,,,,,,,,,,,,,,,,,,,,,,,,
,,246684,20,,2024-12-12_17h53.41.978,guess,2024.2.4,Win32,60.16847172,2450,3.021,3.021,0,6,6,10,1,Read,0.613164444,,,,,,,,,,,,,,,,,,,,,,,,,,,,,,,,,,,,,,,,,,,,,,,,,,,,,,,,,,,,,,,,,
,,246684,20,,2024-12-12_17h53.41.978,guess,2024.2.4,Win32,60.16847172,2450,3.021,3.021,0,7,7,28,1,Read,0.516277429,,,,,,,,,,,,,,,,,,,,,,,,,,,,,,,,,,,,,,,,,,,,,,,,,,,,,,,,,,,,,,,,,
,,246684,20,,2024-12-12_17h53.41.978,guess,2024.2.4,Win32,60.16847172,2450,3.021,3.021,0,8,8,13,1,Guess,0.54823733,,,,,,,,,,,,,,,,,,,,,,,,,,,,,,,,,,,,,,,,,,,,,,,,,,,,,,,,,,,,,,,,,
,,246684,20,,2024-12-12_17h53.41.978,guess,2024.2.4,Win32,60.16847172,2450,3.021,3.021,0,9,9,0,1,Read,0.51513309,,,,,,,,,,,,,,,,,,,,,,,,,,,,,,,,,,,,,,,,,,,,,,,,,,,,,,,,,,,,,,,,,
,,246684,20,,2024-12-12_17h53.41.978,guess,2024.2.4,Win32,60.16847172,2450,3.021,3.021,0,10,10,26,1,Read,0.055311196,,,,,,,,,,,,,,,,,,,,,,,,,,,,,,,,,,,,,,,,,,,,,,,,,,,,,,,,,,,,,,,,,
,,246684,20,,2024-12-12_17h53.41.978,guess,2024.2.4,Win32,60.16847172,2450,3.021,3.021,0,11,11,12,1,Read,0.24480295,,,,,,,,,,,,,,,,,,,,,,,,,,,,,,,,,,,,,,,,,,,,,,,,,,,,,,,,,,,,,,,,,
,,246684,20,,2024-12-12_17h53.41.978,guess,2024.2.4,Win32,60.16847172,2450,3.021,3.021,0,12,12,37,1,Guess,0.585062366,,,,,,,,,,,,,,,,,,,,,,,,,,,,,,,,,,,,,,,,,,,,,,,,,,,,,,,,,,,,,,,,,
,,246684,20,,2024-12-12_17h53.41.978,guess,2024.2.4,Win32,60.16847172,2450,3.022,3.022,0,13,13,31,1,Guess,0.092580742,,,,,,,,,,,,,,,,,,,,,,,,,,,,,,,,,,,,,,,,,,,,,,,,,,,,,,,,,,,,,,,,,
,,246684,20,,2024-12-12_17h53.41.978,guess,2024.2.4,Win32,60.16847172,2450,3.022,3.022,0,14,14,11,1,Guess,0.805573122,,,,,,,,,,,,,,,,,,,,,,,,,,,,,,,,,,,,,,,,,,,,,,,,,,,,,,,,,,,,,,,,,
,,246684,20,,2024-12-12_17h53.41.978,guess,2024.2.4,Win32,60.16847172,2450,3.022,3.022,0,15,15,34,1,Read,0.112797892,,,,,,,,,,,,,,,,,,,,,,,,,,,,,,,,,,,,,,,,,,,,,,,,,,,,,,,,,,,,,,,,,
,,246684,20,,2024-12-12_17h53.41.978,guess,2024.2.4,Win32,60.16847172,2450,3.022,3.022,0,16,16,6,1,Read,0.777201569,,,,,,,,,,,,,,,,,,,,,,,,,,,,,,,,,,,,,,,,,,,,,,,,,,,,,,,,,,,,,,,,,
,,246684,20,,2024-12-12_17h53.41.978,guess,2024.2.4,Win32,60.16847172,2450,3.022,3.022,0,17,17,22,1,Read,0.483519141,,,,,,,,,,,,,,,,,,,,,,,,,,,,,,,,,,,,,,,,,,,,,,,,,,,,,,,,,,,,,,,,,
,,246684,20,,2024-12-12_17h53.41.978,guess,2024.2.4,Win32,60.16847172,2450,3.022,3.022,0,18,18,30,1,Read,0.191181817,,,,,,,,,,,,,,,,,,,,,,,,,,,,,,,,,,,,,,,,,,,,,,,,,,,,,,,,,,,,,,,,,
,,246684,20,,2024-12-12_17h53.41.978,guess,2024.2.4,Win32,60.16847172,2450,3.023,3.023,0,19,19,2,1,Read,0.02347598,,,,,,,,,,,,,,,,,,,,,,,,,,,,,,,,,,,,,,,,,,,,,,,,,,,,,,,,,,,,,,,,,
,,246684,20,,2024-12-12_17h53.41.978,guess,2024.2.4,Win32,60.16847172,2450,3.023,3.023,0,20,20,19,1,Guess,0.096595818,,,,,,,,,,,,,,,,,,,,,,,,,,,,,,,,,,,,,,,,,,,,,,,,,,,,,,,,,,,,,,,,,
,,246684,20,,2024-12-12_17h53.41.978,guess,2024.2.4,Win32,60.16847172,2450,3.023,3.023,0,21,21,35,1,Guess,0.257554014,,,,,,,,,,,,,,,,,,,,,,,,,,,,,,,,,,,,,,,,,,,,,,,,,,,,,,,,,,,,,,,,,
,,246684,20,,2024-12-12_17h53.41.978,guess,2024.2.4,Win32,60.16847172,2450,3.023,3.023,0,22,22,36,1,Read,0.314840019,,,,,,,,,,,,,,,,,,,,,,,,,,,,,,,,,,,,,,,,,,,,,,,,,,,,,,,,,,,,,,,,,
,,246684,20,,2024-12-12_17h53.41.978,guess,2024.2.4,Win32,60.16847172,2450,3.023,3.023,0,23,23,32,1,Read,0.436678806,,,,,,,,,,,,,,,,,,,,,,,,,,,,,,,,,,,,,,,,,,,,,,,,,,,,,,,,,,,,,,,,,
,,246684,20,,2024-12-12_17h53.41.978,guess,2024.2.4,Win32,60.16847172,2450,3.023,3.023,0,24,24,7,1,Guess,0.644792097,,,,,,,,,,,,,,,,,,,,,,,,,,,,,,,,,,,,,,,,,,,,,,,,,,,,,,,,,,,,,,,,,
,,246684,20,,2024-12-12_17h53.41.978,guess,2024.2.4,Win32,60.16847172,2450,3.023,3.023,0,25,25,21,1,Guess,0.38751911,,,,,,,,,,,,,,,,,,,,,,,,,,,,,,,,,,,,,,,,,,,,,,,,,,,,,,,,,,,,,,,,,
,,246684,20,,2024-12-12_17h53.41.978,guess,2024.2.4,Win32,60.16847172,2450,3.024,3.024,0,26,26,23,1,Guess,0.781440522,,,,,,,,,,,,,,,,,,,,,,,,,,,,,,,,,,,,,,,,,,,,,,,,,,,,,,,,,,,,,,,,,
,,246684,20,,2024-12-12_17h53.41.978,guess,2024.2.4,Win32,60.16847172,2450,3.024,3.024,0,27,27,1,1,Guess,0.952162206,,,,,,,,,,,,,,,,,,,,,,,,,,,,,,,,,,,,,,,,,,,,,,,,,,,,,,,,,,,,,,,,,
,,246684,20,,2024-12-12_17h53.41.978,guess,2024.2.4,Win32,60.16847172,2450,3.024,3.024,0,28,28,16,1,Read,0.812207018,,,,,,,,,,,,,,,,,,,,,,,,,,,,,,,,,,,,,,,,,,,,,,,,,,,,,,,,,,,,,,,,,
,,246684,20,,2024-12-12_17h53.41.978,guess,2024.2.4,Win32,60.16847172,2450,3.024,3.024,0,29,29,17,1,Guess,0.104437097,,,,,,,,,,,,,,,,,,,,,,,,,,,,,,,,,,,,,,,,,,,,,,,,,,,,,,,,,,,,,,,,,
,,246684,20,,2024-12-12_17h53.41.978,guess,2024.2.4,Win32,60.16847172,2450,3.024,3.024,0,30,30,15,1,Guess,0.075947494,,,,,,,,,,,,,,,,,,,,,,,,,,,,,,,,,,,,,,,,,,,,,,,,,,,,,,,,,,,,,,,,,
,,246684,20,,2024-12-12_17h53.41.978,guess,2024.2.4,Win32,60.16847172,2450,3.024,3.024,0,31,31,27,1,Guess,0.681161334,,,,,,,,,,,,,,,,,,,,,,,,,,,,,,,,,,,,,,,,,,,,,,,,,,,,,,,,,,,,,,,,,
,,246684,20,,2024-12-12_17h53.41.978,guess,2024.2.4,Win32,60.16847172,2450,3.024,3.024,0,32,32,18,1,Read,0.67780954,,,,,,,,,,,,,,,,,,,,,,,,,,,,,,,,,,,,,,,,,,,,,,,,,,,,,,,,,,,,,,,,,
,,246684,20,,2024-12-12_17h53.41.978,guess,2024.2.4,Win32,60.16847172,2450,3.024,3.024,0,33,33,38,1,Read,0.815852513,,,,,,,,,,,,,,,,,,,,,,,,,,,,,,,,,,,,,,,,,,,,,,,,,,,,,,,,,,,,,,,,,
,,246684,20,,2024-12-12_17h53.41.978,guess,2024.2.4,Win32,60.16847172,2450,3.025,3.025,0,34,34,3,1,Guess,0.256354522,,,,,,,,,,,,,,,,,,,,,,,,,,,,,,,,,,,,,,,,,,,,,,,,,,,,,,,,,,,,,,,,,
,,246684,20,,2024-12-12_17h53.41.978,guess,2024.2.4,Win32,60.16847172,2450,3.025,3.025,0,35,35,29,1,Guess,0.671992113,,,,,,,,,,,,,,,,,,,,,,,,,,,,,,,,,,,,,,,,,,,,,,,,,,,,,,,,,,,,,,,,,
,,246684,20,,2024-12-12_17h53.41.978,guess,2024.2.4,Win32,60.16847172,2450,3.025,3.025,0,36,36,25,1,Guess,0.077972835,,,,,,,,,,,,,,,,,,,,,,,,,,,,,,,,,,,,,,,,,,,,,,,,,,,,,,,,,,,,,,,,,
,,246684,20,,2024-12-12_17h53.41.978,guess,2024.2.4,Win32,60.16847172,2450,3.025,3.025,0,37,37,24,1,Read,0.036047544,,,,,,,,,,,,,,,,,,,,,,,,,,,,,,,,,,,,,,,,,,,,,,,,,,,,,,,,,,,,,,,,,
,,246684,20,,2024-12-12_17h53.41.978,guess,2024.2.4,Win32,60.16847172,2450,3.025,3.025,0,38,38,5,1,Guess,0.01873447,,,,,,,,,,,,,,,,,,,,,,,,,,,,,,,,,,,,,,,,,,,,,,,,,,,,,,,,,,,,,,,,,
,,246684,20,,2024-12-12_17h53.41.978,guess,2024.2.4,Win32,60.16847172,2450,,,,,,,,,,3.025,3.095,space,0.006,,,,,,,,,,,,,,,,,,,,,,,,,,,,,,,,,,,,,,,,,,,,,,,,,,,,,,,,,,,,,
,,246684,20,,2024-12-12_17h53.41.978,guess,2024.2.4,Win32,60.16847172,2450,,,,,,,,,,,,,,,3.095,3.726,space,0.585,,,,,,,,,,,,,,,,,,,,,,,,,,,,,,,,,,,,,,,,,,,,,,,,,,,,,,,,
,,246684,20,,2024-12-12_17h53.41.978,guess,2024.2.4,Win32,60.16847172,2450,,,,,,,,,,,,,,,,,,,,3.726,4.257,space,0.478,,,,,,,,,,,,,,,,,,,,,,,,,,,,,,,,,,,,,,,,,,,,,,,,,,,
,,246684,20,,2024-12-12_17h53.41.978,guess,2024.2.4,Win32,60.16847172,2450,,,,,,,,,,,,,,,,,,,,,,,,,4.257,5.503,space,1.188,,,,,,,,,,,,,,,,,,,,,,,,,,,,,,,,,,,,,,,,,,,,,,
,,246684,20,,2024-12-12_17h53.41.978,guess,2024.2.4,Win32,60.16847172,2450,,,,,,,,,,,,,,,,,,,,,,,,,,,,,,5.503,6.019,space,0.442,,,,,,,,,,,,,,,,,,,,,,,,,,,,,,,,,,,,,,,,,
,,246684,20,,2024-12-12_17h53.41.978,guess,2024.2.4,Win32,60.16847172,2450,,,,,,,,,,,,,,,,,,,,,,,,,,,,,,,,,,,6.037,8.013,8.014,8.021,,8.021,8.023,,8.023,8.024,Read,8.024,11.022,,0,0,0,3,1,Park,Baum,,,,,,,,,,,,,,,,,,,
,,246684,20,,2024-12-12_17h53.41.978,guess,2024.2.4,Win32,60.16847172,2450,,,,,,,,,,,,,,,,,,,,,,,,,,,,,,,,,,,11.023,13.016,13.018,16.008,,16.009,18.002,h,18.004,19.997,Guess,19.999,22.988,,0,1,1,1,1,Frühstück,Brot,1.917,,,,,,,,,,,,,,,,,,
,,246684,20,,2024-12-12_17h53.41.978,guess,2024.2.4,Win32,60.16847172,2450,,,,,,,,,,,,,,,,,,,,,,,,,,,,,,,,,,,22.99,25,25.002,27.991,,27.993,29.987,h,29.987,31.981,Guess,31.983,34.973,,0,2,2,2,1,Hund,Pfote,1,,,,,,,,,,,,,,,,,,
,,246684,20,,2024-12-12_17h53.41.978,guess,2024.2.4,Win32,60.16847172,2450,,,,,,,,,,,,,,,,,,,,,,,,,,,,,,,,,,,34.974,36.984,36.986,36.988,,36.989,36.99,,36.99,36.991,Read,36.992,39.994,,0,3,3,0,1,Wand,Fenster,,,,,,,,,,,,,,,,,,,
,,246684,20,,2024-12-12_17h53.41.978,guess,2024.2.4,Win32,60.16847172,2450,,,,,,,,,,,,,,,,,,,,,,,,,,,,,,,,,,,,,,,,,,,,,,,,,,,,,,,,,,39.994,46.674,space,6.639,,,,,,,,,,,,,
,,246684,20,,2024-12-12_17h53.41.978,guess,2024.2.4,Win32,60.16847172,2450,,,,,,,,,,,,,,,,,,,,,,,,,,,,,,,,,,,,,50.665,53.655,,53.656,55.649,h,,,Guess,55.652,58.641,,,,,,,Blumen,Bouquet,0.576,,,,,,,46.7,50.663,58.642,58.644,,0,0,0,53,1,,
,,246684,20,,2024-12-12_17h53.41.978,guess,2024.2.4,Win32,60.16847172,2450,,,,,,,,,,,,,,,,,,,,,,,,,,,,,,,,,,,,,62.649,62.652,,62.653,62.654,,,,Read,62.655,65.655,,,,,,,Agent,Reise,,,,,,,,58.645,62.648,65.655,65.656,,0,1,1,24,1,,
,,246684,20,,2024-12-12_17h53.41.978,guess,2024.2.4,Win32,60.16847172,2450,,,,,,,,,,,,,,,,,,,,,,,,,,,,,,,,,,,,,69.646,72.638,,72.643,74.631,h,,,Guess,74.634,77.623,,,,,,,Fakt,Wissen,1.198,,,,,,,65.656,69.645,77.623,77.623,,0,2,2,4,1,,
,,246684,20,,2024-12-12_17h53.41.978,guess,2024.2.4,Win32,60.16847172,2450,,,,,,,,,,,,,,,,,,,,,,,,,,,,,,,,,,,,,81.612,84.604,,84.605,86.599,h,,,Guess,86.6,89.59,,,,,,,Teleskop,Mikroskop,1.486,,,,,,,77.628,81.612,89.59,89.59,,0,3,3,43,1,,
,,246684,20,,2024-12-12_17h53.41.978,guess,2024.2.4,Win32,60.16847172,2450,,,,,,,,,,,,,,,,,,,,,,,,,,,,,,,,,,,,,93.581,96.572,,96.572,98.567,h,,,Guess,98.568,101.558,,,,,,,Raum,Platz,1.111,,,,,,,89.592,93.579,101.558,101.558,,0,4,4,39,1,,
,,246684,20,,2024-12-12_17h53.41.978,guess,2024.2.4,Win32,60.16847172,2450,,,,,,,,,,,,,,,,,,,,,,,,,,,,,,,,,,,,,105.553,105.556,,105.556,105.558,,,,Read,105.558,108.555,,,,,,,Winkel,Kurve,,,,,,,,101.559,105.548,108.555,108.555,,0,5,5,75,1,,
,,246684,20,,2024-12-12_17h53.41.978,guess,2024.2.4,Win32,60.16847172,2450,,,,,,,,,,,,,,,,,,,,,,,,,,,,,,,,,,,,,112.546,112.549,,112.55,112.551,,,,Read,112.552,115.553,,,,,,,Brise,Luft,,,,,,,,108.559,112.544,115.553,115.553,,0,6,6,25,1,,
,,246684,20,,2024-12-12_17h53.41.978,guess,2024.2.4,Win32,60.16847172,2450,,,,,,,,,,,,,,,,,,,,,,,,,,,,,,,,,,,,,119.543,122.533,,122.534,124.528,h,,,Guess,124.53,127.52,,,,,,,Service,Kunde,1.121,,,,,,,115.554,119.542,127.52,127.52,,0,7,7,8,1,,
,,246684,20,,2024-12-12_17h53.41.978,guess,2024.2.4,Win32,60.16847172,2450,,,,,,,,,,,,,,,,,,,,,,,,,,,,,,,,,,,,,131.511,134.5,,134.502,136.496,g,,,Guess,136.497,139.488,,,,,,,Akrobatin,Seil,1.644,,,,,,,127.521,131.509,139.489,139.489,,0,8,8,0,1,,
,,246684,20,,2024-12-12_17h53.41.978,guess,2024.2.4,Win32,60.16847172,2450,,,,,,,,,,,,,,,,,,,,,,,,,,,,,,,,,,,,,143.499,146.485,,146.487,148.479,h,,,Guess,148.481,151.471,,,,,,,Tänzer,Musik,1.178,,,,,,,139.494,143.493,151.471,151.472,,0,9,9,42,1,,
,,246684,20,,2024-12-12_17h53.41.978,guess,2024.2.4,Win32,60.16847172,2450,,,,,,,,,,,,,,,,,,,,,,,,,,,,,,,,,,,,,155.462,155.465,,155.466,155.468,,,,Read,155.468,158.469,,,,,,,Vers,Poesie,,,,,,,,151.474,155.46,158.469,158.469,,0,10,10,46,1,,
,,246684,20,,2024-12-12_17h53.41.978,guess,2024.2.4,Win32,60.16847172,2450,,,,,,,,,,,,,,,,,,,,,,,,,,,,,,,,,,,,,162.459,165.45,,165.451,167.444,h,,,Guess,167.447,170.437,,,,,,,Vogel,Feder,1.167,,,,,,,158.471,162.458,170.437,170.437,,0,11,11,47,1,,
,,246684,20,,2024-12-12_17h53.41.978,guess,2024.2.4,Win32,60.16847172,2450,,,,,,,,,,,,,,,,,,,,,,,,,,,,,,,,,,,,,174.431,177.417,,177.419,179.412,h,,,Guess,179.413,182.403,,,,,,,Chips,Salz,0.976,,,,,,,170.438,174.426,182.403,182.403,,0,12,12,1,1,,
,,246684,20,,2024-12-12_17h53.41.978,guess,2024.2.4,Win32,60.16847172,2450,,,,,,,,,,,,,,,,,,,,,,,,,,,,,,,,,,,,,186.394,189.384,,189.386,191.379,h,,,Guess,191.381,194.371,,,,,,,Gegenstand,Artikel,0.85,,,,,,,182.408,186.393,194.371,194.371,,0,13,13,32,1,,
,,246684,20,,2024-12-12_17h53.41.978,guess,2024.2.4,Win32,60.16847172,2450,,,,,,,,,,,,,,,,,,,,,,,,,,,,,,,,,,,,,198.361,201.352,,201.353,203.346,g,,,Guess,203.348,206.339,,,,,,,Statue,Monument,1.258,,,,,,,194.372,198.36,206.339,206.34,,0,14,14,41,1,,
,,246684,20,,2024-12-12_17h53.41.978,guess,2024.2.4,Win32,60.16847172,2450,,,,,,,,,,,,,,,,,,,,,,,,,,,,,,,,,,,,,210.348,210.351,,210.352,210.354,,,,Read,210.355,213.352,,,,,,,Klebstoff,Papier,,,,,,,,206.344,210.343,213.352,213.352,,0,15,15,62,1,,
,,246684,20,,2024-12-12_17h53.41.978,guess,2024.2.4,Win32,60.16847172,2450,,,,,,,,,,,,,,,,,,,,,,,,,,,,,,,,,,,,,217.342,217.345,,217.346,217.347,,,,Read,217.347,220.35,,,,,,,Juwel,Gold,,,,,,,,213.354,217.341,220.35,220.35,,0,16,16,57,1,,
,,246684,20,,2024-12-12_17h53.41.978,guess,2024.2.4,Win32,60.16847172,2450,,,,,,,,,,,,,,,,,,,,,,,,,,,,,,,,,,,,,224.34,227.331,,227.332,229.326,g,,,Guess,229.327,232.317,,,,,,,Kante,Messer,0.538,,,,,,,220.351,224.339,232.317,232.317,,0,17,17,59,1,,
,,246684,20,,2024-12-12_17h53.41.978,guess,2024.2.4,Win32,60.16847172,2450,,,,,,,,,,,,,,,,,,,,,,,,,,,,,,,,,,,,,236.307,239.299,,239.304,241.293,g,,,Guess,241.295,244.285,,,,,,,Mauer,Straße,0.841,,,,,,,232.317,236.306,244.285,244.285,,0,18,18,64,1,,
,,246684,20,,2024-12-12_17h53.41.978,guess,2024.2.4,Win32,60.16847172,2450,,,,,,,,,,,,,,,,,,,,,,,,,,,,,,,,,,,,,248.274,248.277,,248.278,248.28,,,,Read,248.281,251.282,,,,,,,Humor,Komödie,,,,,,,,244.289,248.273,251.282,251.282,,0,19,19,33,1,,
,,246684,20,,2024-12-12_17h53.41.978,guess,2024.2.4,Win32,60.16847172,2450,,,,,,,,,,,,,,,,,,,,,,,,,,,,,,,,,,,,,255.272,255.274,,255.275,255.277,,,,Read,255.278,258.28,,,,,,,Publikum,Applaus,,,,,,,,251.283,255.271,258.28,258.28,,0,20,20,37,1,,
,,246684,20,,2024-12-12_17h53.41.978,guess,2024.2.4,Win32,60.16847172,2450,,,,,,,,,,,,,,,,,,,,,,,,,,,,,,,,,,,,,262.269,262.272,,262.273,262.274,,,,Read,262.275,265.277,,,,,,,Eingeweide,Organ,,,,,,,,258.28,262.268,265.277,265.277,,0,21,21,28,1,,
,,246684,20,,2024-12-12_17h53.41.978,guess,2024.2.4,Win32,60.16847172,2450,,,,,,,,,,,,,,,,,,,,,,,,,,,,,,,,,,,,,269.267,269.269,,269.27,269.271,,,,Read,269.272,272.274,,,,,,,Garage,Haus,,,,,,,,265.278,269.266,272.274,272.274,,0,22,22,31,1,,
,,246684,20,,2024-12-12_17h53.41.978,guess,2024.2.4,Win32,60.16847172,2450,,,,,,,,,,,,,,,,,,,,,,,,,,,,,,,,,,,,,276.269,276.272,,276.273,276.274,,,,Read,276.275,279.272,,,,,,,Schlüssel,Ring,,,,,,,,272.275,276.265,279.272,279.273,,0,23,23,40,1,,
,,246684,20,,2024-12-12_17h53.41.978,guess,2024.2.4,Win32,60.16847172,2450,,,,,,,,,,,,,,,,,,,,,,,,,,,,,,,,,,,,,283.263,286.253,,286.254,288.248,g,,,Guess,288.25,291.239,,,,,,,Experiment,Versuch,1.029,,,,,,,279.277,283.261,291.239,291.239,,0,24,24,3,1,,
,,246684,20,,2024-12-12_17h53.41.978,guess,2024.2.4,Win32,60.16847172,2450,,,,,,,,,,,,,,,,,,,,,,,,,,,,,,,,,,,,,295.229,298.221,,298.222,300.215,h,,,Guess,300.216,303.206,,,,,,,Karneval,Festival,1.3,,,,,,,291.24,295.228,303.206,303.207,,0,25,25,35,1,,
,,246684,20,,2024-12-12_17h53.41.978,guess,2024.2.4,Win32,60.16847172,2450,,,,,,,,,,,,,,,,,,,,,,,,,,,,,,,,,,,,,307.201,310.188,,310.189,312.183,h,,,Guess,312.185,315.174,,,,,,,Kind,Junge,0.464,,,,,,,303.208,307.197,315.174,315.174,,0,26,26,60,1,,
,,246684,20,,2024-12-12_17h53.41.978,guess,2024.2.4,Win32,60.16847172,2450,,,,,,,,,,,,,,,,,,,,,,,,,,,,,,,,,,,,,319.165,319.168,,319.169,319.17,,,,Read,319.17,322.172,,,,,,,Mappe,Buch,,,,,,,,315.178,319.163,322.172,322.172,,0,27,27,36,1,,
,,246684,20,,2024-12-12_17h53.41.978,guess,2024.2.4,Win32,60.16847172,2450,,,,,,,,,,,,,,,,,,,,,,,,,,,,,,,,,,,,,326.162,326.165,,326.166,326.166,,,,Read,326.168,329.169,,,,,,,Häftling,Verurteilter,,,,,,,,322.172,326.161,329.169,329.17,,0,28,28,55,1,,
,,246684,20,,2024-12-12_17h53.41.978,guess,2024.2.4,Win32,60.16847172,2450,,,,,,,,,,,,,,,,,,,,,,,,,,,,,,,,,,,,,333.159,333.162,,333.162,333.163,,,,Read,333.164,336.167,,,,,,,Schuh,Stiefel,,,,,,,,329.171,333.158,336.167,336.167,,0,29,29,68,1,,
,,246684,20,,2024-12-12_17h53.41.978,guess,2024.2.4,Win32,60.16847172,2450,,,,,,,,,,,,,,,,,,,,,,,,,,,,,,,,,,,,,340.161,343.148,,343.149,345.143,h,,,Guess,345.144,348.134,,,,,,,Insel,Meer,1.359,,,,,,,336.168,340.157,348.134,348.134,,0,30,30,34,1,,
,,246684,20,,2024-12-12_17h53.41.978,guess,2024.2.4,Win32,60.16847172,2450,,,,,,,,,,,,,,,,,,,,,,,,,,,,,,,,,,,,,352.125,352.127,,352.128,352.129,,,,Read,352.13,355.132,,,,,,,Rauch,Nebel,,,,,,,,348.138,352.123,355.132,355.132,,0,31,31,6,1,,
,,246684,20,,2024-12-12_17h53.41.978,guess,2024.2.4,Win32,60.16847172,2450,,,,,,,,,,,,,,,,,,,,,,,,,,,,,,,,,,,,,359.122,359.124,,359.125,359.127,,,,Read,359.127,362.129,,,,,,,Geburtstag,Kerze,,,,,,,,355.132,359.121,362.129,362.129,,0,32,32,15,1,,
,,246684,20,,2024-12-12_17h53.41.978,guess,2024.2.4,Win32,60.16847172,2450,,,,,,,,,,,,,,,,,,,,,,,,,,,,,,,,,,,,,366.12,366.122,,366.122,366.124,,,,Read,366.125,369.127,,,,,,,Tee,Blätter,,,,,,,,362.131,366.118,369.127,369.127,,0,33,33,71,1,,
,,246684,20,,2024-12-12_17h53.41.978,guess,2024.2.4,Win32,60.16847172,2450,,,,,,,,,,,,,,,,,,,,,,,,,,,,,,,,,,,,,373.134,373.135,,373.136,373.138,,,,Read,373.139,376.142,,,,,,,Rasen,Pflege,,,,,,,,369.128,373.132,376.142,376.143,,0,34,34,19,1,,
,,246684,20,,2024-12-12_17h53.41.978,guess,2024.2.4,Win32,60.16847172,2450,,,,,,,,,,,,,,,,,,,,,,,,,,,,,,,,,,,,,380.152,383.138,,383.14,385.133,h,,,Guess,385.135,388.125,,,,,,,Bar,Alkohol,1.69,,,,,,,376.146,380.146,388.125,388.125,,0,35,35,51,1,,
,,246684,20,,2024-12-12_17h53.41.978,guess,2024.2.4,Win32,60.16847172,2450,,,,,,,,,,,,,,,,,,,,,,,,,,,,,,,,,,,,,392.115,392.118,,392.119,392.121,,,,Read,392.121,395.122,,,,,,,Tradition,Weihnachten,,,,,,,,388.126,392.114,395.122,395.123,,0,36,36,45,1,,
,,246684,20,,2024-12-12_17h53.41.978,guess,2024.2.4,Win32,60.16847172,2450,,,,,,,,,,,,,,,,,,,,,,,,,,,,,,,,,,,,,399.112,399.115,,399.116,399.117,,,,Read,399.118,402.12,,,,,,,Kamin,Ziegel,,,,,,,,395.123,399.111,402.12,402.12,,0,37,37,58,1,,
,,246684,20,,2024-12-12_17h53.41.978,guess,2024.2.4,Win32,60.16847172,2450,,,,,,,,,,,,,,,,,,,,,,,,,,,,,,,,,,,,,406.127,409.118,,409.123,411.112,,,,Guess,411.114,414.104,,,,,,,Soldat,Kämpfer,,,,,,,,402.122,406.126,414.104,414.104,,0,38,38,10,1,,
,,246684,20,,2024-12-12_17h53.41.978,guess,2024.2.4,Win32,60.16847172,2450,,,,,,,,,,,,,,,,,,,,,,,,,,,,,,,,,,,,,418.111,421.102,,421.103,423.096,h,,,,423.098,426.088,,,,,,,Zunge,Backe,1.336,,,,,,,414.109,418.109,426.088,431.573,space,0,39,39,49,1,5.454,
,,246684,20,,2024-12-12_17h53.41.978,guess,2024.2.4,Win32,60.16847172,2450,,,,,,,,,,,,,,,,,,,,,,,,,,,,,,,,,,,,,435.563,438.554,,438.555,440.55,,,,,440.556,444.857,,,,,,,Beweis,Gericht,,,,,,,,431.574,435.562,444.857,444.858,,0,40,40,52,1,,
