welcome.started,welcome.stopped,ID-Nummer,Alter,Geschlecht (optional),date,expName,psychopyVersion,OS,frameRate,participant,load_guess_conditions.started,load_guess_conditions.stopped,guess_conditions.thisRepN,guess_conditions.thisTrialN,guess_conditions.thisN,guess_conditions.thisIndex,guess_conditions.ran,guess_trial,randomizer,instructions1.started,instructions1.stopped,instruction1_key.keys,instruction1_key.rt,instruction1_key.duration,instructions2.started,instructions2.stopped,instruction2_key.keys,instruction2_key.rt,instruction2_key.duration,instructions3.started,instructions3.stopped,instruction3_key.keys,instruction3_key.rt,instruction3_key.duration,instructions4.started,instructions4.stopped,instruction4_key.keys,instruction4_key.rt,instruction4_key.duration,instructions5.started,instructions5.stopped,instruction5_key.keys,instruction5_key.rt,instruction5_key.duration,iti_learning_practice.started,iti_learning_practice.stopped,guess.started,guess.stopped,end_guess.keys,guess_response.started,guess_response.stopped,guess_reached.keys,feedback_guess.started,feedback_guess.stopped,trial_type,encode.started,encode.stopped,end_encoding.keys,practice_trials.thisRepN,practice_trials.thisTrialN,practice_trials.thisN,practice_trials.thisIndex,practice_trials.ran,cue,target,guess_reached.rt,guess_reached.duration,start_task.started,start_task.stopped,start_key.keys,start_key.rt,start_key.duration,iti_learning.started,iti_learning.stopped,task_break.started,task_break.stopped,task_break_resp.keys,learning_trials.thisRepN,learning_trials.thisTrialN,learning_trials.thisN,learning_trials.thisIndex,learning_trials.ran,task_break_resp.rt,task_break_resp.duration,end_part1.started,end_part1.stopped,end_part1_key.keys,end_part1_key.rt,end_part1_key.duration,instructions_recall1.started,instructions_recall1.stopped,recall_instructions1_key.keys,recall_instructions1_key.rt,recall_instructions1_key.duration,instructions_recall2.started,instructions_recall2.stopped,recall_instructions1_key_2.keys,recall_instructions1_key_2.rt,recall_instructions1_key_2.duration,iti.started,iti.stopped,cued_recall.started,cued_recall.stopped,end_cued_recall.keys,recall_response.started,recall_response.stopped,recall_reached.keys,recall_reached.rt,recall_reached.duration,recall_select.started,recall_select.stopped,recall_selection.keys,recall_feedback.started,recall_feedback.stopped,end_feedback.keys,test_practice_trials.thisRepN,test_practice_trials.thisTrialN,test_practice_trials.thisN,test_practice_trials.thisIndex,test_practice_trials.ran,test_trials.thisRepN,test_trials.thisTrialN,test_trials.thisN,test_trials.thisIndex,test_trials.ran,end_part2.started,end_part2.stopped,end_part2_key.keys,end_part2_key.rt,end_part2_key.duration,instructions_semantic_mapping1.started,instructions_semantic_mapping1.stopped,sm_instructions1_key.keys,sm_instructions1_key.rt,sm_instructions1_key.duration,instructions_semantic_mapping2.started,instructions_semantic_mapping2.stopped,sm_instructions2_key.keys,sm_instructions2_key.rt,sm_instructions2_key.duration,sm_trial_type,item.started,item.stopped,living_nonliving.keys,living_nonliving.rt,living_nonliving.duration,end_mapping.keys,mapping_break.started,mapping_break.stopped,break_resp.keys,semantic_mapping.thisRepN,semantic_mapping.thisTrialN,semantic_mapping.thisN,semantic_mapping.thisIndex,semantic_mapping.ran,list_item,kind,break_resp.rt,break_resp.duration,thanks.started,thanks.stopped
0,2.993,879824,19,weiblich,2024-12-14_14h43.31.881,guess,2024.2.4,MacIntel,58.82352941,4148,,,,,,,,,,,,,,,,,,,,,,,,,,,,,,,,,,,,,,,,,,,,,,,,,,,,,,,,,,,,,,,,,,,,,,,,,,,,,,,,,,,,,,,,,,,,,,,,,,,,,,,,,,,,,,,,,,,,,,,,,,,,,,,,,,,,,,,,,,,,,,,,,,,,,,,
,,879824,19,weiblich,2024-12-14_14h43.31.881,guess,2024.2.4,MacIntel,58.82352941,4148,3.023,3.023,0,0,0,10,1,Read,0.613164444,,,,,,,,,,,,,,,,,,,,,,,,,,,,,,,,,,,,,,,,,,,,,,,,,,,,,,,,,,,,,,,,,,,,,,,,,,,,,,,,,,,,,,,,,,,,,,,,,,,,,,,,,,,,,,,,,,,,,,,,,,,,,,,,,,,,,,,,,,,,,,
,,879824,19,weiblich,2024-12-14_14h43.31.881,guess,2024.2.4,MacIntel,58.82352941,4148,3.023,3.023,0,1,1,28,1,Read,0.516277429,,,,,,,,,,,,,,,,,,,,,,,,,,,,,,,,,,,,,,,,,,,,,,,,,,,,,,,,,,,,,,,,,,,,,,,,,,,,,,,,,,,,,,,,,,,,,,,,,,,,,,,,,,,,,,,,,,,,,,,,,,,,,,,,,,,,,,,,,,,,,,
,,879824,19,weiblich,2024-12-14_14h43.31.881,guess,2024.2.4,MacIntel,58.82352941,4148,3.023,3.023,0,2,2,36,1,Read,0.314840019,,,,,,,,,,,,,,,,,,,,,,,,,,,,,,,,,,,,,,,,,,,,,,,,,,,,,,,,,,,,,,,,,,,,,,,,,,,,,,,,,,,,,,,,,,,,,,,,,,,,,,,,,,,,,,,,,,,,,,,,,,,,,,,,,,,,,,,,,,,,,,
,,879824,19,weiblich,2024-12-14_14h43.31.881,guess,2024.2.4,MacIntel,58.82352941,4148,3.023,3.023,0,3,3,22,1,Read,0.483519141,,,,,,,,,,,,,,,,,,,,,,,,,,,,,,,,,,,,,,,,,,,,,,,,,,,,,,,,,,,,,,,,,,,,,,,,,,,,,,,,,,,,,,,,,,,,,,,,,,,,,,,,,,,,,,,,,,,,,,,,,,,,,,,,,,,,,,,,,,,,,,
,,879824,19,weiblich,2024-12-14_14h43.31.881,guess,2024.2.4,MacIntel,58.82352941,4148,3.023,3.023,0,4,4,13,1,Guess,0.54823733,,,,,,,,,,,,,,,,,,,,,,,,,,,,,,,,,,,,,,,,,,,,,,,,,,,,,,,,,,,,,,,,,,,,,,,,,,,,,,,,,,,,,,,,,,,,,,,,,,,,,,,,,,,,,,,,,,,,,,,,,,,,,,,,,,,,,,,,,,,,,,
,,879824,19,weiblich,2024-12-14_14h43.31.881,guess,2024.2.4,MacIntel,58.82352941,4148,3.023,3.023,0,5,5,3,1,Guess,0.256354522,,,,,,,,,,,,,,,,,,,,,,,,,,,,,,,,,,,,,,,,,,,,,,,,,,,,,,,,,,,,,,,,,,,,,,,,,,,,,,,,,,,,,,,,,,,,,,,,,,,,,,,,,,,,,,,,,,,,,,,,,,,,,,,,,,,,,,,,,,,,,,
,,879824,19,weiblich,2024-12-14_14h43.31.881,guess,2024.2.4,MacIntel,58.82352941,4148,3.023,3.023,0,6,6,18,1,Read,0.67780954,,,,,,,,,,,,,,,,,,,,,,,,,,,,,,,,,,,,,,,,,,,,,,,,,,,,,,,,,,,,,,,,,,,,,,,,,,,,,,,,,,,,,,,,,,,,,,,,,,,,,,,,,,,,,,,,,,,,,,,,,,,,,,,,,,,,,,,,,,,,,,
,,879824,19,weiblich,2024-12-14_14h43.31.881,guess,2024.2.4,MacIntel,58.82352941,4148,3.024,3.024,0,7,7,25,1,Guess,0.077972835,,,,,,,,,,,,,,,,,,,,,,,,,,,,,,,,,,,,,,,,,,,,,,,,,,,,,,,,,,,,,,,,,,,,,,,,,,,,,,,,,,,,,,,,,,,,,,,,,,,,,,,,,,,,,,,,,,,,,,,,,,,,,,,,,,,,,,,,,,,,,,
,,879824,19,weiblich,2024-12-14_14h43.31.881,guess,2024.2.4,MacIntel,58.82352941,4148,3.024,3.024,0,8,8,17,1,Guess,0.104437097,,,,,,,,,,,,,,,,,,,,,,,,,,,,,,,,,,,,,,,,,,,,,,,,,,,,,,,,,,,,,,,,,,,,,,,,,,,,,,,,,,,,,,,,,,,,,,,,,,,,,,,,,,,,,,,,,,,,,,,,,,,,,,,,,,,,,,,,,,,,,,
,,879824,19,weiblich,2024-12-14_14h43.31.881,guess,2024.2.4,MacIntel,58.82352941,4148,3.024,3.024,0,9,9,32,1,Read,0.436678806,,,,,,,,,,,,,,,,,,,,,,,,,,,,,,,,,,,,,,,,,,,,,,,,,,,,,,,,,,,,,,,,,,,,,,,,,,,,,,,,,,,,,,,,,,,,,,,,,,,,,,,,,,,,,,,,,,,,,,,,,,,,,,,,,,,,,,,,,,,,,,
,,879824,19,weiblich,2024-12-14_14h43.31.881,guess,2024.2.4,MacIntel,58.82352941,4148,3.024,3.024,0,10,10,14,1,Read,0.118489356,,,,,,,,,,,,,,,,,,,,,,,,,,,,,,,,,,,,,,,,,,,,,,,,,,,,,,,,,,,,,,,,,,,,,,,,,,,,,,,,,,,,,,,,,,,,,,,,,,,,,,,,,,,,,,,,,,,,,,,,,,,,,,,,,,,,,,,,,,,,,,
,,879824,19,weiblich,2024-12-14_14h43.31.881,guess,2024.2.4,MacIntel,58.82352941,4148,3.024,3.024,0,11,11,15,1,Guess,0.075947494,,,,,,,,,,,,,,,,,,,,,,,,,,,,,,,,,,,,,,,,,,,,,,,,,,,,,,,,,,,,,,,,,,,,,,,,,,,,,,,,,,,,,,,,,,,,,,,,,,,,,,,,,,,,,,,,,,,,,,,,,,,,,,,,,,,,,,,,,,,,,,
,,879824,19,weiblich,2024-12-14_14h43.31.881,guess,2024.2.4,MacIntel,58.82352941,4148,3.024,3.024,0,12,12,2,1,Read,0.02347598,,,,,,,,,,,,,,,,,,,,,,,,,,,,,,,,,,,,,,,,,,,,,,,,,,,,,,,,,,,,,,,,,,,,,,,,,,,,,,,,,,,,,,,,,,,,,,,,,,,,,,,,,,,,,,,,,,,,,,,,,,,,,,,,,,,,,,,,,,,,,,
,,879824,19,weiblich,2024-12-14_14h43.31.881,guess,2024.2.4,MacIntel,58.82352941,4148,3.024,3.024,0,13,13,21,1,Guess,0.38751911,,,,,,,,,,,,,,,,,,,,,,,,,,,,,,,,,,,,,,,,,,,,,,,,,,,,,,,,,,,,,,,,,,,,,,,,,,,,,,,,,,,,,,,,,,,,,,,,,,,,,,,,,,,,,,,,,,,,,,,,,,,,,,,,,,,,,,,,,,,,,,
,,879824,19,weiblich,2024-12-14_14h43.31.881,guess,2024.2.4,MacIntel,58.82352941,4148,3.024,3.024,0,14,14,7,1,Guess,0.644792097,,,,,,,,,,,,,,,,,,,,,,,,,,,,,,,,,,,,,,,,,,,,,,,,,,,,,,,,,,,,,,,,,,,,,,,,,,,,,,,,,,,,,,,,,,,,,,,,,,,,,,,,,,,,,,,,,,,,,,,,,,,,,,,,,,,,,,,,,,,,,,
,,879824,19,weiblich,2024-12-14_14h43.31.881,guess,2024.2.4,MacIntel,58.82352941,4148,3.024,3.024,0,15,15,16,1,Read,0.812207018,,,,,,,,,,,,,,,,,,,,,,,,,,,,,,,,,,,,,,,,,,,,,,,,,,,,,,,,,,,,,,,,,,,,,,,,,,,,,,,,,,,,,,,,,,,,,,,,,,,,,,,,,,,,,,,,,,,,,,,,,,,,,,,,,,,,,,,,,,,,,,
,,879824,19,weiblich,2024-12-14_14h43.31.881,guess,2024.2.4,MacIntel,58.82352941,4148,3.024,3.024,0,16,16,27,1,Guess,0.681161334,,,,,,,,,,,,,,,,,,,,,,,,,,,,,,,,,,,,,,,,,,,,,,,,,,,,,,,,,,,,,,,,,,,,,,,,,,,,,,,,,,,,,,,,,,,,,,,,,,,,,,,,,,,,,,,,,,,,,,,,,,,,,,,,,,,,,,,,,,,,,,
,,879824,19,weiblich,2024-12-14_14h43.31.881,guess,2024.2.4,MacIntel,58.82352941,4148,3.024,3.024,0,17,17,23,1,Guess,0.781440522,,,,,,,,,,,,,,,,,,,,,,,,,,,,,,,,,,,,,,,,,,,,,,,,,,,,,,,,,,,,,,,,,,,,,,,,,,,,,,,,,,,,,,,,,,,,,,,,,,,,,,,,,,,,,,,,,,,,,,,,,,,,,,,,,,,,,,,,,,,,,,
,,879824,19,weiblich,2024-12-14_14h43.31.881,guess,2024.2.4,MacIntel,58.82352941,4148,3.024,3.024,0,18,18,8,1,Read,0.196287165,,,,,,,,,,,,,,,,,,,,,,,,,,,,,,,,,,,,,,,,,,,,,,,,,,,,,,,,,,,,,,,,,,,,,,,,,,,,,,,,,,,,,,,,,,,,,,,,,,,,,,,,,,,,,,,,,,,,,,,,,,,,,,,,,,,,,,,,,,,,,,
,,879824,19,weiblich,2024-12-14_14h43.31.881,guess,2024.2.4,MacIntel,58.82352941,4148,3.024,3.024,0,19,19,35,1,Guess,0.257554014,,,,,,,,,,,,,,,,,,,,,,,,,,,,,,,,,,,,,,,,,,,,,,,,,,,,,,,,,,,,,,,,,,,,,,,,,,,,,,,,,,,,,,,,,,,,,,,,,,,,,,,,,,,,,,,,,,,,,,,,,,,,,,,,,,,,,,,,,,,,,,
,,879824,19,weiblich,2024-12-14_14h43.31.881,guess,2024.2.4,MacIntel,58.82352941,4148,3.024,3.024,0,20,20,30,1,Read,0.191181817,,,,,,,,,,,,,,,,,,,,,,,,,,,,,,,,,,,,,,,,,,,,,,,,,,,,,,,,,,,,,,,,,,,,,,,,,,,,,,,,,,,,,,,,,,,,,,,,,,,,,,,,,,,,,,,,,,,,,,,,,,,,,,,,,,,,,,,,,,,,,,
,,879824,19,weiblich,2024-12-14_14h43.31.881,guess,2024.2.4,MacIntel,58.82352941,4148,3.024,3.024,0,21,21,24,1,Read,0.036047544,,,,,,,,,,,,,,,,,,,,,,,,,,,,,,,,,,,,,,,,,,,,,,,,,,,,,,,,,,,,,,,,,,,,,,,,,,,,,,,,,,,,,,,,,,,,,,,,,,,,,,,,,,,,,,,,,,,,,,,,,,,,,,,,,,,,,,,,,,,,,,
,,879824,19,weiblich,2024-12-14_14h43.31.881,guess,2024.2.4,MacIntel,58.82352941,4148,3.024,3.024,0,22,22,12,1,Read,0.24480295,,,,,,,,,,,,,,,,,,,,,,,,,,,,,,,,,,,,,,,,,,,,,,,,,,,,,,,,,,,,,,,,,,,,,,,,,,,,,,,,,,,,,,,,,,,,,,,,,,,,,,,,,,,,,,,,,,,,,,,,,,,,,,,,,,,,,,,,,,,,,,
,,879824,19,weiblich,2024-12-14_14h43.31.881,guess,2024.2.4,MacIntel,58.82352941,4148,3.024,3.024,0,23,23,26,1,Read,0.055311196,,,,,,,,,,,,,,,,,,,,,,,,,,,,,,,,,,,,,,,,,,,,,,,,,,,,,,,,,,,,,,,,,,,,,,,,,,,,,,,,,,,,,,,,,,,,,,,,,,,,,,,,,,,,,,,,,,,,,,,,,,,,,,,,,,,,,,,,,,,,,,
,,879824,19,weiblich,2024-12-14_14h43.31.881,guess,2024.2.4,MacIntel,58.82352941,4148,3.024,3.024,0,24,24,37,1,Guess,0.585062366,,,,,,,,,,,,,,,,,,,,,,,,,,,,,,,,,,,,,,,,,,,,,,,,,,,,,,,,,,,,,,,,,,,,,,,,,,,,,,,,,,,,,,,,,,,,,,,,,,,,,,,,,,,,,,,,,,,,,,,,,,,,,,,,,,,,,,,,,,,,,,
,,879824,19,weiblich,2024-12-14_14h43.31.881,guess,2024.2.4,MacIntel,58.82352941,4148,3.024,3.024,0,25,25,20,1,Read,0.85362492,,,,,,,,,,,,,,,,,,,,,,,,,,,,,,,,,,,,,,,,,,,,,,,,,,,,,,,,,,,,,,,,,,,,,,,,,,,,,,,,,,,,,,,,,,,,,,,,,,,,,,,,,,,,,,,,,,,,,,,,,,,,,,,,,,,,,,,,,,,,,,
,,879824,19,weiblich,2024-12-14_14h43.31.881,guess,2024.2.4,MacIntel,58.82352941,4148,3.024,3.024,0,26,26,33,1,Guess,0.893806662,,,,,,,,,,,,,,,,,,,,,,,,,,,,,,,,,,,,,,,,,,,,,,,,,,,,,,,,,,,,,,,,,,,,,,,,,,,,,,,,,,,,,,,,,,,,,,,,,,,,,,,,,,,,,,,,,,,,,,,,,,,,,,,,,,,,,,,,,,,,,,
,,879824,19,weiblich,2024-12-14_14h43.31.881,guess,2024.2.4,MacIntel,58.82352941,4148,3.025,3.025,0,27,27,19,1,Guess,0.096595818,,,,,,,,,,,,,,,,,,,,,,,,,,,,,,,,,,,,,,,,,,,,,,,,,,,,,,,,,,,,,,,,,,,,,,,,,,,,,,,,,,,,,,,,,,,,,,,,,,,,,,,,,,,,,,,,,,,,,,,,,,,,,,,,,,,,,,,,,,,,,,
,,879824,19,weiblich,2024-12-14_14h43.31.881,guess,2024.2.4,MacIntel,58.82352941,4148,3.025,3.025,0,28,28,4,1,Read,0.640402041,,,,,,,,,,,,,,,,,,,,,,,,,,,,,,,,,,,,,,,,,,,,,,,,,,,,,,,,,,,,,,,,,,,,,,,,,,,,,,,,,,,,,,,,,,,,,,,,,,,,,,,,,,,,,,,,,,,,,,,,,,,,,,,,,,,,,,,,,,,,,,
,,879824,19,weiblich,2024-12-14_14h43.31.881,guess,2024.2.4,MacIntel,58.82352941,4148,3.025,3.025,0,29,29,34,1,Read,0.112797892,,,,,,,,,,,,,,,,,,,,,,,,,,,,,,,,,,,,,,,,,,,,,,,,,,,,,,,,,,,,,,,,,,,,,,,,,,,,,,,,,,,,,,,,,,,,,,,,,,,,,,,,,,,,,,,,,,,,,,,,,,,,,,,,,,,,,,,,,,,,,,
,,879824,19,weiblich,2024-12-14_14h43.31.881,guess,2024.2.4,MacIntel,58.82352941,4148,3.025,3.025,0,30,30,6,1,Read,0.777201569,,,,,,,,,,,,,,,,,,,,,,,,,,,,,,,,,,,,,,,,,,,,,,,,,,,,,,,,,,,,,,,,,,,,,,,,,,,,,,,,,,,,,,,,,,,,,,,,,,,,,,,,,,,,,,,,,,,,,,,,,,,,,,,,,,,,,,,,,,,,,,
,,879824,19,weiblich,2024-12-14_14h43.31.881,guess,2024.2.4,MacIntel,58.82352941,4148,3.025,3.025,0,31,31,9,1,Guess,0.481509697,,,,,,,,,,,,,,,,,,,,,,,,,,,,,,,,,,,,,,,,,,,,,,,,,,,,,,,,,,,,,,,,,,,,,,,,,,,,,,,,,,,,,,,,,,,,,,,,,,,,,,,,,,,,,,,,,,,,,,,,,,,,,,,,,,,,,,,,,,,,,,
,,879824,19,weiblich,2024-12-14_14h43.31.881,guess,2024.2.4,MacIntel,58.82352941,4148,3.025,3.025,0,32,32,1,1,Guess,0.952162206,,,,,,,,,,,,,,,,,,,,,,,,,,,,,,,,,,,,,,,,,,,,,,,,,,,,,,,,,,,,,,,,,,,,,,,,,,,,,,,,,,,,,,,,,,,,,,,,,,,,,,,,,,,,,,,,,,,,,,,,,,,,,,,,,,,,,,,,,,,,,,
,,879824,19,weiblich,2024-12-14_14h43.31.881,guess,2024.2.4,MacIntel,58.82352941,4148,3.025,3.025,0,33,33,11,1,Guess,0.805573122,,,,,,,,,,,,,,,,,,,,,,,,,,,,,,,,,,,,,,,,,,,,,,,,,,,,,,,,,,,,,,,,,,,,,,,,,,,,,,,,,,,,,,,,,,,,,,,,,,,,,,,,,,,,,,,,,,,,,,,,,,,,,,,,,,,,,,,,,,,,,,
,,879824,19,weiblich,2024-12-14_14h43.31.881,guess,2024.2.4,MacIntel,58.82352941,4148,3.025,3.025,0,34,34,0,1,Read,0.51513309,,,,,,,,,,,,,,,,,,,,,,,,,,,,,,,,,,,,,,,,,,,,,,,,,,,,,,,,,,,,,,,,,,,,,,,,,,,,,,,,,,,,,,,,,,,,,,,,,,,,,,,,,,,,,,,,,,,,,,,,,,,,,,,,,,,,,,,,,,,,,,
,,879824,19,weiblich,2024-12-14_14h43.31.881,guess,2024.2.4,MacIntel,58.82352941,4148,3.025,3.025,0,35,35,38,1,Read,0.815852513,,,,,,,,,,,,,,,,,,,,,,,,,,,,,,,,,,,,,,,,,,,,,,,,,,,,,,,,,,,,,,,,,,,,,,,,,,,,,,,,,,,,,,,,,,,,,,,,,,,,,,,,,,,,,,,,,,,,,,,,,,,,,,,,,,,,,,,,,,,,,,
,,879824,19,weiblich,2024-12-14_14h43.31.881,guess,2024.2.4,MacIntel,58.82352941,4148,3.025,3.025,0,36,36,29,1,Guess,0.671992113,,,,,,,,,,,,,,,,,,,,,,,,,,,,,,,,,,,,,,,,,,,,,,,,,,,,,,,,,,,,,,,,,,,,,,,,,,,,,,,,,,,,,,,,,,,,,,,,,,,,,,,,,,,,,,,,,,,,,,,,,,,,,,,,,,,,,,,,,,,,,,
,,879824,19,weiblich,2024-12-14_14h43.31.881,guess,2024.2.4,MacIntel,58.82352941,4148,3.025,3.025,0,37,37,5,1,Guess,0.01873447,,,,,,,,,,,,,,,,,,,,,,,,,,,,,,,,,,,,,,,,,,,,,,,,,,,,,,,,,,,,,,,,,,,,,,,,,,,,,,,,,,,,,,,,,,,,,,,,,,,,,,,,,,,,,,,,,,,,,,,,,,,,,,,,,,,,,,,,,,,,,,
,,879824,19,weiblich,2024-12-14_14h43.31.881,guess,2024.2.4,MacIntel,58.82352941,4148,3.025,3.025,0,38,38,31,1,Guess,0.092580742,,,,,,,,,,,,,,,,,,,,,,,,,,,,,,,,,,,,,,,,,,,,,,,,,,,,,,,,,,,,,,,,,,,,,,,,,,,,,,,,,,,,,,,,,,,,,,,,,,,,,,,,,,,,,,,,,,,,,,,,,,,,,,,,,,,,,,,,,,,,,,
,,879824,19,weiblich,2024-12-14_14h43.31.881,guess,2024.2.4,MacIntel,58.82352941,4148,,,,,,,,,,3.025,8.436,space,5.364,,,,,,,,,,,,,,,,,,,,,,,,,,,,,,,,,,,,,,,,,,,,,,,,,,,,,,,,,,,,,,,,,,,,,,,,,,,,,,,,,,,,,,,,,,,,,,,,,,,,,,,,,,,,,,,,,,,,,,,,,,,,,,,,,,,,,,,,,,
,,879824,19,weiblich,2024-12-14_14h43.31.881,guess,2024.2.4,MacIntel,58.82352941,4148,,,,,,,,,,,,,,,8.436,13.343,space,4.872,,,,,,,,,,,,,,,,,,,,,,,,,,,,,,,,,,,,,,,,,,,,,,,,,,,,,,,,,,,,,,,,,,,,,,,,,,,,,,,,,,,,,,,,,,,,,,,,,,,,,,,,,,,,,,,,,,,,,,,,,,,,,,,,,,,,,
,,879824,19,weiblich,2024-12-14_14h43.31.881,guess,2024.2.4,MacIntel,58.82352941,4148,,,,,,,,,,,,,,,,,,,,13.343,19.293,space,5.912,,,,,,,,,,,,,,,,,,,,,,,,,,,,,,,,,,,,,,,,,,,,,,,,,,,,,,,,,,,,,,,,,,,,,,,,,,,,,,,,,,,,,,,,,,,,,,,,,,,,,,,,,,,,,,,,,,,,,,,,,,,,,,,,
,,879824,19,weiblich,2024-12-14_14h43.31.881,guess,2024.2.4,MacIntel,58.82352941,4148,,,,,,,,,,,,,,,,,,,,,,,,,19.293,30.928,space,11.59,,,,,,,,,,,,,,,,,,,,,,,,,,,,,,,,,,,,,,,,,,,,,,,,,,,,,,,,,,,,,,,,,,,,,,,,,,,,,,,,,,,,,,,,,,,,,,,,,,,,,,,,,,,,,,,,,,,,,,,,,,,
,,879824,19,weiblich,2024-12-14_14h43.31.881,guess,2024.2.4,MacIntel,58.82352941,4148,,,,,,,,,,,,,,,,,,,,,,,,,,,,,,30.928,44.56,space,13.584,,,,,,,,,,,,,,,,,,,,,,,,,,,,,,,,,,,,,,,,,,,,,,,,,,,,,,,,,,,,,,,,,,,,,,,,,,,,,,,,,,,,,,,,,,,,,,,,,,,,,,,,,,,,,,,,,,,,,,
,,879824,19,weiblich,2024-12-14_14h43.31.881,guess,2024.2.4,MacIntel,58.82352941,4148,,,,,,,,,,,,,,,,,,,,,,,,,,,,,,,,,,,44.568,46.558,46.567,46.571,,46.572,46.574,,46.575,46.575,Read,46.575,49.576,,0,0,0,2,1,Hund,Pfote,,,,,,,,,,,,,,,,,,,,,,,,,,,,,,,,,,,,,,,,,,,,,,,,,,,,,,,,,,,,,,,,,,,,,,,,,,,,,,,,,,,,,,,,,,,,,,,,
,,879824,19,weiblich,2024-12-14_14h43.31.881,guess,2024.2.4,MacIntel,58.82352941,4148,,,,,,,,,,,,,,,,,,,,,,,,,,,,,,,,,,,49.578,51.575,51.576,54.575,,54.576,56.576,h,56.577,58.575,Guess,58.576,61.575,,0,1,1,1,1,Frühstück,Brot,1.167,,,,,,,,,,,,,,,,,,,,,,,,,,,,,,,,,,,,,,,,,,,,,,,,,,,,,,,,,,,,,,,,,,,,,,,,,,,,,,,,,,,,,,,,,,,,,,,
,,879824,19,weiblich,2024-12-14_14h43.31.881,guess,2024.2.4,MacIntel,58.82352941,4148,,,,,,,,,,,,,,,,,,,,,,,,,,,,,,,,,,,61.576,63.575,63.577,66.575,,66.576,68.575,h,68.575,70.575,Guess,70.576,73.575,,0,2,2,3,1,Park,Baum,0.998,,,,,,,,,,,,,,,,,,,,,,,,,,,,,,,,,,,,,,,,,,,,,,,,,,,,,,,,,,,,,,,,,,,,,,,,,,,,,,,,,,,,,,,,,,,,,,,
,,879824,19,weiblich,2024-12-14_14h43.31.881,guess,2024.2.4,MacIntel,58.82352941,4148,,,,,,,,,,,,,,,,,,,,,,,,,,,,,,,,,,,73.576,75.574,75.575,75.576,,75.576,75.576,,75.577,75.577,Read,75.577,78.575,,0,3,3,0,1,Wand,Fenster,,,,,,,,,,,,,,,,,,,,,,,,,,,,,,,,,,,,,,,,,,,,,,,,,,,,,,,,,,,,,,,,,,,,,,,,,,,,,,,,,,,,,,,,,,,,,,,,
,,879824,19,weiblich,2024-12-14_14h43.31.881,guess,2024.2.4,MacIntel,58.82352941,4148,,,,,,,,,,,,,,,,,,,,,,,,,,,,,,,,,,,,,,,,,,,,,,,,,,,,,,,,,,78.577,81.442,space,2.833,,,,,,,,,,,,,,,,,,,,,,,,,,,,,,,,,,,,,,,,,,,,,,,,,,,,,,,,,,,,,,,,,,,,,,,,,,,,,,,,,,,,,,,,,,
,,879824,19,weiblich,2024-12-14_14h43.31.881,guess,2024.2.4,MacIntel,58.82352941,4148,,,,,,,,,,,,,,,,,,,,,,,,,,,,,,,,,,,,,85.443,88.441,,88.442,90.441,h,,,Guess,90.443,93.441,,,,,,,Mappe,Buch,1.003,,,,,,,81.455,85.442,93.442,93.445,,0,0,0,36,1,,,,,,,,,,,,,,,,,,,,,,,,,,,,,,,,,,,,,,,,,,,,,,,,,,,,,,,,,,,,,,,,,,,,,,,,,,,,,,,
,,879824,19,weiblich,2024-12-14_14h43.31.881,guess,2024.2.4,MacIntel,58.82352941,4148,,,,,,,,,,,,,,,,,,,,,,,,,,,,,,,,,,,,,97.442,100.441,,100.442,102.441,g,,,Guess,102.443,105.441,,,,,,,Statue,Monument,0.646,,,,,,,93.446,97.441,105.441,105.442,,0,1,1,41,1,,,,,,,,,,,,,,,,,,,,,,,,,,,,,,,,,,,,,,,,,,,,,,,,,,,,,,,,,,,,,,,,,,,,,,,,,,,,,,,
,,879824,19,weiblich,2024-12-14_14h43.31.881,guess,2024.2.4,MacIntel,58.82352941,4148,,,,,,,,,,,,,,,,,,,,,,,,,,,,,,,,,,,,,109.442,112.441,,112.442,114.441,,,,Guess,114.443,117.441,,,,,,,Beweis,Gericht,,,,,,,,105.442,109.441,117.441,117.441,,0,2,2,52,1,,,,,,,,,,,,,,,,,,,,,,,,,,,,,,,,,,,,,,,,,,,,,,,,,,,,,,,,,,,,,,,,,,,,,,,,,,,,,,,
,,879824,19,weiblich,2024-12-14_14h43.31.881,guess,2024.2.4,MacIntel,58.82352941,4148,,,,,,,,,,,,,,,,,,,,,,,,,,,,,,,,,,,,,121.442,121.444,,121.444,121.445,,,,Read,121.445,124.441,,,,,,,Publikum,Applaus,,,,,,,,117.442,121.441,124.441,124.441,,0,3,3,37,1,,,,,,,,,,,,,,,,,,,,,,,,,,,,,,,,,,,,,,,,,,,,,,,,,,,,,,,,,,,,,,,,,,,,,,,,,,,,,,,
,,879824,19,weiblich,2024-12-14_14h43.31.881,guess,2024.2.4,MacIntel,58.82352941,4148,,,,,,,,,,,,,,,,,,,,,,,,,,,,,,,,,,,,,128.442,128.444,,128.444,128.445,,,,Read,128.446,131.441,,,,,,,Wein,Abendessen,,,,,,,,124.442,128.441,131.441,131.441,,0,4,4,74,1,,,,,,,,,,,,,,,,,,,,,,,,,,,,,,,,,,,,,,,,,,,,,,,,,,,,,,,,,,,,,,,,,,,,,,,,,,,,,,,
,,879824,19,weiblich,2024-12-14_14h43.31.881,guess,2024.2.4,MacIntel,58.82352941,4148,,,,,,,,,,,,,,,,,,,,,,,,,,,,,,,,,,,,,135.442,138.44,,138.442,140.441,h,,,Guess,140.442,143.441,,,,,,,Streifen,Shirt,1.015,,,,,,,131.442,135.441,143.441,143.441,,0,5,5,70,1,,,,,,,,,,,,,,,,,,,,,,,,,,,,,,,,,,,,,,,,,,,,,,,,,,,,,,,,,,,,,,,,,,,,,,,,,,,,,,,
,,879824,19,weiblich,2024-12-14_14h43.31.881,guess,2024.2.4,MacIntel,58.82352941,4148,,,,,,,,,,,,,,,,,,,,,,,,,,,,,,,,,,,,,147.442,150.441,,150.443,152.441,h,,,Guess,152.442,155.441,,,,,,,Schnorchel,Flossen,0.884,,,,,,,143.442,147.441,155.441,155.441,,0,6,6,67,1,,,,,,,,,,,,,,,,,,,,,,,,,,,,,,,,,,,,,,,,,,,,,,,,,,,,,,,,,,,,,,,,,,,,,,,,,,,,,,,
,,879824,19,weiblich,2024-12-14_14h43.31.881,guess,2024.2.4,MacIntel,58.82352941,4148,,,,,,,,,,,,,,,,,,,,,,,,,,,,,,,,,,,,,159.442,162.441,,162.442,164.441,h,,,Guess,164.442,167.441,,,,,,,Juwel,Gold,0.815,,,,,,,155.442,159.441,167.441,167.441,,0,7,7,57,1,,,,,,,,,,,,,,,,,,,,,,,,,,,,,,,,,,,,,,,,,,,,,,,,,,,,,,,,,,,,,,,,,,,,,,,,,,,,,,,
,,879824,19,weiblich,2024-12-14_14h43.31.881,guess,2024.2.4,MacIntel,58.82352941,4148,,,,,,,,,,,,,,,,,,,,,,,,,,,,,,,,,,,,,171.442,171.443,,171.444,171.444,,,,Read,171.445,174.441,,,,,,,Leistung,Ehre,,,,,,,,167.442,171.441,174.441,174.441,,0,8,8,5,1,,,,,,,,,,,,,,,,,,,,,,,,,,,,,,,,,,,,,,,,,,,,,,,,,,,,,,,,,,,,,,,,,,,,,,,,,,,,,,,
,,879824,19,weiblich,2024-12-14_14h43.31.881,guess,2024.2.4,MacIntel,58.82352941,4148,,,,,,,,,,,,,,,,,,,,,,,,,,,,,,,,,,,,,178.441,178.443,,178.444,178.444,,,,Read,178.445,181.441,,,,,,,Kante,Messer,,,,,,,,174.442,178.44,181.441,181.441,,0,9,9,59,1,,,,,,,,,,,,,,,,,,,,,,,,,,,,,,,,,,,,,,,,,,,,,,,,,,,,,,,,,,,,,,,,,,,,,,,,,,,,,,,
,,879824,19,weiblich,2024-12-14_14h43.31.881,guess,2024.2.4,MacIntel,58.82352941,4148,,,,,,,,,,,,,,,,,,,,,,,,,,,,,,,,,,,,,185.441,185.443,,185.444,185.444,,,,Read,185.445,188.441,,,,,,,Golf,Loch,,,,,,,,181.441,185.441,188.441,188.441,,0,10,10,17,1,,,,,,,,,,,,,,,,,,,,,,,,,,,,,,,,,,,,,,,,,,,,,,,,,,,,,,,,,,,,,,,,,,,,,,,,,,,,,,,
,,879824,19,weiblich,2024-12-14_14h43.31.881,guess,2024.2.4,MacIntel,58.82352941,4148,,,,,,,,,,,,,,,,,,,,,,,,,,,,,,,,,,,,,192.441,195.441,,195.442,197.441,g,,,Guess,197.443,200.441,,,,,,,Klebstoff,Papier,1.116,,,,,,,188.442,192.44,200.441,200.441,,0,11,11,62,1,,,,,,,,,,,,,,,,,,,,,,,,,,,,,,,,,,,,,,,,,,,,,,,,,,,,,,,,,,,,,,,,,,,,,,,,,,,,,,,
,,879824,19,weiblich,2024-12-14_14h43.31.881,guess,2024.2.4,MacIntel,58.82352941,4148,,,,,,,,,,,,,,,,,,,,,,,,,,,,,,,,,,,,,204.442,207.44,,207.442,209.441,g,,,Guess,209.442,212.441,,,,,,,Experiment,Versuch,1.146,,,,,,,200.442,204.441,212.441,212.441,,0,12,12,3,1,,,,,,,,,,,,,,,,,,,,,,,,,,,,,,,,,,,,,,,,,,,,,,,,,,,,,,,,,,,,,,,,,,,,,,,,,,,,,,,
,,879824,19,weiblich,2024-12-14_14h43.31.881,guess,2024.2.4,MacIntel,58.82352941,4148,,,,,,,,,,,,,,,,,,,,,,,,,,,,,,,,,,,,,216.441,216.443,,216.444,216.445,,,,Read,216.445,219.44,,,,,,,Vogel,Feder,,,,,,,,212.442,216.44,219.441,219.441,,0,13,13,47,1,,,,,,,,,,,,,,,,,,,,,,,,,,,,,,,,,,,,,,,,,,,,,,,,,,,,,,,,,,,,,,,,,,,,,,,,,,,,,,,
,,879824,19,weiblich,2024-12-14_14h43.31.881,guess,2024.2.4,MacIntel,58.82352941,4148,,,,,,,,,,,,,,,,,,,,,,,,,,,,,,,,,,,,,223.442,226.44,,226.442,228.44,g,,,Guess,228.442,231.44,,,,,,,Helm,Kopf,1.846,,,,,,,219.441,223.44,231.44,231.441,,0,14,14,56,1,,,,,,,,,,,,,,,,,,,,,,,,,,,,,,,,,,,,,,,,,,,,,,,,,,,,,,,,,,,,,,,,,,,,,,,,,,,,,,,
,,879824,19,weiblich,2024-12-14_14h43.31.881,guess,2024.2.4,MacIntel,58.82352941,4148,,,,,,,,,,,,,,,,,,,,,,,,,,,,,,,,,,,,,235.441,235.443,,235.443,235.444,,,,Read,235.444,238.44,,,,,,,Kino,Theater,,,,,,,,231.442,235.44,238.44,238.44,,0,15,15,61,1,,,,,,,,,,,,,,,,,,,,,,,,,,,,,,,,,,,,,,,,,,,,,,,,,,,,,,,,,,,,,,,,,,,,,,,,,,,,,,,
,,879824,19,weiblich,2024-12-14_14h43.31.881,guess,2024.2.4,MacIntel,58.82352941,4148,,,,,,,,,,,,,,,,,,,,,,,,,,,,,,,,,,,,,242.441,242.443,,242.444,242.444,,,,Read,242.445,245.44,,,,,,,Diskussion,Vorlesung,,,,,,,,238.441,242.44,245.44,245.441,,0,16,16,27,1,,,,,,,,,,,,,,,,,,,,,,,,,,,,,,,,,,,,,,,,,,,,,,,,,,,,,,,,,,,,,,,,,,,,,,,,,,,,,,,
,,879824,19,weiblich,2024-12-14_14h43.31.881,guess,2024.2.4,MacIntel,58.82352941,4148,,,,,,,,,,,,,,,,,,,,,,,,,,,,,,,,,,,,,249.441,249.443,,249.443,249.444,,,,Read,249.444,252.44,,,,,,,Traube,Rosine,,,,,,,,245.441,249.44,252.44,252.441,,0,17,17,72,1,,,,,,,,,,,,,,,,,,,,,,,,,,,,,,,,,,,,,,,,,,,,,,,,,,,,,,,,,,,,,,,,,,,,,,,,,,,,,,,
,,879824,19,weiblich,2024-12-14_14h43.31.881,guess,2024.2.4,MacIntel,58.82352941,4148,,,,,,,,,,,,,,,,,,,,,,,,,,,,,,,,,,,,,256.441,256.442,,256.443,256.443,,,,Read,256.443,259.44,,,,,,,Tee,Blätter,,,,,,,,252.441,256.44,259.44,259.441,,0,18,18,71,1,,,,,,,,,,,,,,,,,,,,,,,,,,,,,,,,,,,,,,,,,,,,,,,,,,,,,,,,,,,,,,,,,,,,,,,,,,,,,,,
,,879824,19,weiblich,2024-12-14_14h43.31.881,guess,2024.2.4,MacIntel,58.82352941,4148,,,,,,,,,,,,,,,,,,,,,,,,,,,,,,,,,,,,,263.441,266.44,,266.441,268.44,h,,,Guess,268.441,271.44,,,,,,,Garage,Haus,1.769,,,,,,,259.441,263.44,271.44,271.44,,0,19,19,31,1,,,,,,,,,,,,,,,,,,,,,,,,,,,,,,,,,,,,,,,,,,,,,,,,,,,,,,,,,,,,,,,,,,,,,,,,,,,,,,,
,,879824,19,weiblich,2024-12-14_14h43.31.881,guess,2024.2.4,MacIntel,58.82352941,4148,,,,,,,,,,,,,,,,,,,,,,,,,,,,,,,,,,,,,275.441,275.443,,275.443,275.444,,,,Read,275.445,278.44,,,,,,,Teleskop,Mikroskop,,,,,,,,271.441,275.44,278.44,278.44,,0,20,20,43,1,,,,,,,,,,,,,,,,,,,,,,,,,,,,,,,,,,,,,,,,,,,,,,,,,,,,,,,,,,,,,,,,,,,,,,,,,,,,,,,
,,879824,19,weiblich,2024-12-14_14h43.31.881,guess,2024.2.4,MacIntel,58.82352941,4148,,,,,,,,,,,,,,,,,,,,,,,,,,,,,,,,,,,,,282.441,285.44,,285.441,287.44,g,,,Guess,287.442,290.44,,,,,,,Vergangenheit,Erinnerungen,1.503,,,,,,,278.441,282.44,290.44,290.44,,0,21,21,23,1,,,,,,,,,,,,,,,,,,,,,,,,,,,,,,,,,,,,,,,,,,,,,,,,,,,,,,,,,,,,,,,,,,,,,,,,,,,,,,,
,,879824,19,weiblich,2024-12-14_14h43.31.881,guess,2024.2.4,MacIntel,58.82352941,4148,,,,,,,,,,,,,,,,,,,,,,,,,,,,,,,,,,,,,294.441,297.44,,297.441,299.439,g,,,Guess,299.441,302.439,,,,,,,Decke,Kissen,1.134,,,,,,,290.44,294.44,302.439,302.439,,0,22,22,26,1,,,,,,,,,,,,,,,,,,,,,,,,,,,,,,,,,,,,,,,,,,,,,,,,,,,,,,,,,,,,,,,,,,,,,,,,,,,,,,,
,,879824,19,weiblich,2024-12-14_14h43.31.881,guess,2024.2.4,MacIntel,58.82352941,4148,,,,,,,,,,,,,,,,,,,,,,,,,,,,,,,,,,,,,306.44,306.442,,306.442,306.443,,,,Read,306.443,309.44,,,,,,,Kind,Junge,,,,,,,,302.44,306.439,309.44,309.44,,0,23,23,60,1,,,,,,,,,,,,,,,,,,,,,,,,,,,,,,,,,,,,,,,,,,,,,,,,,,,,,,,,,,,,,,,,,,,,,,,,,,,,,,,
,,879824,19,weiblich,2024-12-14_14h43.31.881,guess,2024.2.4,MacIntel,58.82352941,4148,,,,,,,,,,,,,,,,,,,,,,,,,,,,,,,,,,,,,313.441,316.439,,316.44,318.44,g,,,Guess,318.441,321.44,,,,,,,Sitzgurt,Gesetz,1.144,,,,,,,309.44,313.44,321.44,321.44,,0,24,24,21,1,,,,,,,,,,,,,,,,,,,,,,,,,,,,,,,,,,,,,,,,,,,,,,,,,,,,,,,,,,,,,,,,,,,,,,,,,,,,,,,
,,879824,19,weiblich,2024-12-14_14h43.31.881,guess,2024.2.4,MacIntel,58.82352941,4148,,,,,,,,,,,,,,,,,,,,,,,,,,,,,,,,,,,,,325.441,328.44,,328.441,330.44,h,,,Guess,330.441,333.44,,,,,,,Tänzer,Musik,1.05,,,,,,,321.441,325.44,333.44,333.44,,0,25,25,42,1,,,,,,,,,,,,,,,,,,,,,,,,,,,,,,,,,,,,,,,,,,,,,,,,,,,,,,,,,,,,,,,,,,,,,,,,,,,,,,,
,,879824,19,weiblich,2024-12-14_14h43.31.881,guess,2024.2.4,MacIntel,58.82352941,4148,,,,,,,,,,,,,,,,,,,,,,,,,,,,,,,,,,,,,337.441,337.443,,337.443,337.444,,,,Read,337.444,340.44,,,,,,,Kamin,Ziegel,,,,,,,,333.441,337.439,340.44,340.44,,0,26,26,58,1,,,,,,,,,,,,,,,,,,,,,,,,,,,,,,,,,,,,,,,,,,,,,,,,,,,,,,,,,,,,,,,,,,,,,,,,,,,,,,,
,,879824,19,weiblich,2024-12-14_14h43.31.881,guess,2024.2.4,MacIntel,58.82352941,4148,,,,,,,,,,,,,,,,,,,,,,,,,,,,,,,,,,,,,344.441,347.44,,347.441,349.44,g,,,Guess,349.441,352.439,,,,,,,Soldat,Kämpfer,1.096,,,,,,,340.44,344.439,352.44,352.44,,0,27,27,10,1,,,,,,,,,,,,,,,,,,,,,,,,,,,,,,,,,,,,,,,,,,,,,,,,,,,,,,,,,,,,,,,,,,,,,,,,,,,,,,,
,,879824,19,weiblich,2024-12-14_14h43.31.881,guess,2024.2.4,MacIntel,58.82352941,4148,,,,,,,,,,,,,,,,,,,,,,,,,,,,,,,,,,,,,356.44,356.442,,356.442,356.443,,,,Read,356.443,359.439,,,,,,,Definition,Begriff,,,,,,,,352.441,356.439,359.44,359.44,,0,28,28,2,1,,,,,,,,,,,,,,,,,,,,,,,,,,,,,,,,,,,,,,,,,,,,,,,,,,,,,,,,,,,,,,,,,,,,,,,,,,,,,,,
,,879824,19,weiblich,2024-12-14_14h43.31.881,guess,2024.2.4,MacIntel,58.82352941,4148,,,,,,,,,,,,,,,,,,,,,,,,,,,,,,,,,,,,,363.441,363.442,,363.442,363.443,,,,Read,363.443,366.439,,,,,,,Tradition,Weihnachten,,,,,,,,359.44,363.439,366.44,366.44,,0,29,29,45,1,,,,,,,,,,,,,,,,,,,,,,,,,,,,,,,,,,,,,,,,,,,,,,,,,,,,,,,,,,,,,,,,,,,,,,,,,,,,,,,
,,879824,19,weiblich,2024-12-14_14h43.31.881,guess,2024.2.4,MacIntel,58.82352941,4148,,,,,,,,,,,,,,,,,,,,,,,,,,,,,,,,,,,,,370.44,373.439,,373.44,375.439,g,,,Guess,375.441,378.439,,,,,,,Scheidung,Anwalt,1.133,,,,,,,366.441,370.439,378.439,378.44,,0,30,30,7,1,,,,,,,,,,,,,,,,,,,,,,,,,,,,,,,,,,,,,,,,,,,,,,,,,,,,,,,,,,,,,,,,,,,,,,,,,,,,,,,
,,879824,19,weiblich,2024-12-14_14h43.31.881,guess,2024.2.4,MacIntel,58.82352941,4148,,,,,,,,,,,,,,,,,,,,,,,,,,,,,,,,,,,,,382.441,385.439,,385.441,387.439,g,,,Guess,387.441,390.439,,,,,,,Bar,Alkohol,1.09,,,,,,,378.44,382.439,390.439,390.439,,0,31,31,51,1,,,,,,,,,,,,,,,,,,,,,,,,,,,,,,,,,,,,,,,,,,,,,,,,,,,,,,,,,,,,,,,,,,,,,,,,,,,,,,,
,,879824,19,weiblich,2024-12-14_14h43.31.881,guess,2024.2.4,MacIntel,58.82352941,4148,,,,,,,,,,,,,,,,,,,,,,,,,,,,,,,,,,,,,394.44,394.442,,394.442,394.443,,,,Read,394.443,397.439,,,,,,,Schuh,Stiefel,,,,,,,,390.441,394.439,397.439,397.44,,0,32,32,68,1,,,,,,,,,,,,,,,,,,,,,,,,,,,,,,,,,,,,,,,,,,,,,,,,,,,,,,,,,,,,,,,,,,,,,,,,,,,,,,,
,,879824,19,weiblich,2024-12-14_14h43.31.881,guess,2024.2.4,MacIntel,58.82352941,4148,,,,,,,,,,,,,,,,,,,,,,,,,,,,,,,,,,,,,401.441,404.439,,404.44,406.439,,,,Guess,406.441,409.439,,,,,,,Geburtstag,Kerze,,,,,,,,397.44,401.439,409.439,409.44,,0,33,33,15,1,,,,,,,,,,,,,,,,,,,,,,,,,,,,,,,,,,,,,,,,,,,,,,,,,,,,,,,,,,,,,,,,,,,,,,,,,,,,,,,
,,879824,19,weiblich,2024-12-14_14h43.31.881,guess,2024.2.4,MacIntel,58.82352941,4148,,,,,,,,,,,,,,,,,,,,,,,,,,,,,,,,,,,,,413.44,416.439,,416.44,418.439,g,,,Guess,418.441,421.439,,,,,,,Zimt,Rolle,1.145,,,,,,,409.44,413.439,421.439,421.439,,0,34,34,77,1,,,,,,,,,,,,,,,,,,,,,,,,,,,,,,,,,,,,,,,,,,,,,,,,,,,,,,,,,,,,,,,,,,,,,,,,,,,,,,,
,,879824,19,weiblich,2024-12-14_14h43.31.881,guess,2024.2.4,MacIntel,58.82352941,4148,,,,,,,,,,,,,,,,,,,,,,,,,,,,,,,,,,,,,425.44,425.441,,425.442,425.442,,,,Read,425.443,428.439,,,,,,,Gast,Zimmer,,,,,,,,421.44,425.439,428.439,428.439,,0,35,35,14,1,,,,,,,,,,,,,,,,,,,,,,,,,,,,,,,,,,,,,,,,,,,,,,,,,,,,,,,,,,,,,,,,,,,,,,,,,,,,,,,
,,879824,19,weiblich,2024-12-14_14h43.31.881,guess,2024.2.4,MacIntel,58.82352941,4148,,,,,,,,,,,,,,,,,,,,,,,,,,,,,,,,,,,,,432.44,432.441,,432.442,432.442,,,,Read,432.443,435.439,,,,,,,Flotte,Boot,,,,,,,,428.44,432.439,435.439,435.439,,0,36,36,54,1,,,,,,,,,,,,,,,,,,,,,,,,,,,,,,,,,,,,,,,,,,,,,,,,,,,,,,,,,,,,,,,,,,,,,,,,,,,,,,,
,,879824,19,weiblich,2024-12-14_14h43.31.881,guess,2024.2.4,MacIntel,58.82352941,4148,,,,,,,,,,,,,,,,,,,,,,,,,,,,,,,,,,,,,439.44,439.442,,439.442,439.443,,,,Read,439.443,442.439,,,,,,,Anführer,Boss,,,,,,,,435.44,439.439,442.439,442.439,,0,37,37,12,1,,,,,,,,,,,,,,,,,,,,,,,,,,,,,,,,,,,,,,,,,,,,,,,,,,,,,,,,,,,,,,,,,,,,,,,,,,,,,,,
,,879824,19,weiblich,2024-12-14_14h43.31.881,guess,2024.2.4,MacIntel,58.82352941,4148,,,,,,,,,,,,,,,,,,,,,,,,,,,,,,,,,,,,,446.44,446.441,,446.441,446.442,,,,Read,446.442,449.439,,,,,,,Pumpe,Reifen,,,,,,,,442.439,446.439,449.439,449.439,,0,38,38,38,1,,,,,,,,,,,,,,,,,,,,,,,,,,,,,,,,,,,,,,,,,,,,,,,,,,,,,,,,,,,,,,,,,,,,,,,,,,,,,,,
,,879824,19,weiblich,2024-12-14_14h43.31.881,guess,2024.2.4,MacIntel,58.82352941,4148,,,,,,,,,,,,,,,,,,,,,,,,,,,,,,,,,,,,,453.44,456.439,,456.44,458.439,f,,,,458.44,461.439,,,,,,,Schlüssel,Ring,1.35,,,,,,,449.439,453.439,461.439,462.805,space,0,39,39,40,1,1.351,,,,,,,,,,,,,,,,,,,,,,,,,,,,,,,,,,,,,,,,,,,,,,,,,,,,,,,,,,,,,,,,,,,,,,,,,,,,,,
,,879824,19,weiblich,2024-12-14_14h43.31.881,guess,2024.2.4,MacIntel,58.82352941,4148,,,,,,,,,,,,,,,,,,,,,,,,,,,,,,,,,,,,,466.807,469.805,,469.806,471.805,g,,,,471.807,474.805,,,,,,,Insel,Meer,1.184,,,,,,,462.805,466.805,474.805,474.805,,0,40,40,34,1,,,,,,,,,,,,,,,,,,,,,,,,,,,,,,,,,,,,,,,,,,,,,,,,,,,,,,,,,,,,,,,,,,,,,,,,,,,,,,,
,,879824,19,weiblich,2024-12-14_14h43.31.881,guess,2024.2.4,MacIntel,58.82352941,4148,,,,,,,,,,,,,,,,,,,,,,,,,,,,,,,,,,,,,478.807,481.805,,481.806,483.805,h,,,,483.808,486.804,,,,,,,Häftling,Verurteilter,0.901,,,,,,,474.807,478.805,486.805,486.805,,0,41,41,55,1,,,,,,,,,,,,,,,,,,,,,,,,,,,,,,,,,,,,,,,,,,,,,,,,,,,,,,,,,,,,,,,,,,,,,,,,,,,,,,,
,,879824,19,weiblich,2024-12-14_14h43.31.881,guess,2024.2.4,MacIntel,58.82352941,4148,,,,,,,,,,,,,,,,,,,,,,,,,,,,,,,,,,,,,490.806,493.805,,493.806,495.804,g,,,,495.806,498.805,,,,,,,Floh,Käfer,0.618,,,,,,,486.806,490.805,498.805,498.805,,0,42,42,29,1,,,,,,,,,,,,,,,,,,,,,,,,,,,,,,,,,,,,,,,,,,,,,,,,,,,,,,,,,,,,,,,,,,,,,,,,,,,,,,,
,,879824,19,weiblich,2024-12-14_14h43.31.881,guess,2024.2.4,MacIntel,58.82352941,4148,,,,,,,,,,,,,,,,,,,,,,,,,,,,,,,,,,,,,502.806,505.805,,505.806,507.805,g,,,,507.806,510.805,,,,,,,Blumen,Bouquet,1.065,,,,,,,498.806,502.805,510.805,510.805,,0,43,43,53,1,,,,,,,,,,,,,,,,,,,,,,,,,,,,,,,,,,,,,,,,,,,,,,,,,,,,,,,,,,,,,,,,,,,,,,,,,,,,,,,
,,879824,19,weiblich,2024-12-14_14h43.31.881,guess,2024.2.4,MacIntel,58.82352941,4148,,,,,,,,,,,,,,,,,,,,,,,,,,,,,,,,,,,,,514.806,517.805,,517.806,519.804,,,,,519.805,522.804,,,,,,,Zunge,Backe,,,,,,,,510.806,514.805,522.804,522.804,,0,44,44,49,1,,,,,,,,,,,,,,,,,,,,,,,,,,,,,,,,,,,,,,,,,,,,,,,,,,,,,,,,,,,,,,,,,,,,,,,,,,,,,,,
,,879824,19,weiblich,2024-12-14_14h43.31.881,guess,2024.2.4,MacIntel,58.82352941,4148,,,,,,,,,,,,,,,,,,,,,,,,,,,,,,,,,,,,,526.806,529.805,,529.806,531.805,,,,,531.806,534.805,,,,,,,Brise,Luft,,,,,,,,522.805,526.805,534.805,534.805,,0,45,45,25,1,,,,,,,,,,,,,,,,,,,,,,,,,,,,,,,,,,,,,,,,,,,,,,,,,,,,,,,,,,,,,,,,,,,,,,,,,,,,,,,
,,879824,19,weiblich,2024-12-14_14h43.31.881,guess,2024.2.4,MacIntel,58.82352941,4148,,,,,,,,,,,,,,,,,,,,,,,,,,,,,,,,,,,,,538.805,541.805,,541.805,543.805,h,,,,543.806,546.804,,,,,,,Winkel,Kurve,0.701,,,,,,,534.806,538.804,546.804,546.804,,0,46,46,75,1,,,,,,,,,,,,,,,,,,,,,,,,,,,,,,,,,,,,,,,,,,,,,,,,,,,,,,,,,,,,,,,,,,,,,,,,,,,,,,,
,,879824,19,weiblich,2024-12-14_14h43.31.881,guess,2024.2.4,MacIntel,58.82352941,4148,,,,,,,,,,,,,,,,,,,,,,,,,,,,,,,,,,,,,550.805,553.804,,553.805,555.804,,,,,555.806,558.805,,,,,,,Gegenstand,Artikel,,,,,,,,546.805,550.804,558.805,558.805,,0,47,47,32,1,,,,,,,,,,,,,,,,,,,,,,,,,,,,,,,,,,,,,,,,,,,,,,,,,,,,,,,,,,,,,,,,,,,,,,,,,,,,,,,
,,879824,19,weiblich,2024-12-14_14h43.31.881,guess,2024.2.4,MacIntel,58.82352941,4148,,,,,,,,,,,,,,,,,,,,,,,,,,,,,,,,,,,,,562.805,565.804,,565.805,567.805,h,,,,567.807,570.804,,,,,,,Zug,Flugzeug,0.5,,,,,,,558.806,562.804,570.805,570.805,,0,48,48,48,1,,,,,,,,,,,,,,,,,,,,,,,,,,,,,,,,,,,,,,,,,,,,,,,,,,,,,,,,,,,,,,,,,,,,,,,,,,,,,,,
,,879824,19,weiblich,2024-12-14_14h43.31.881,guess,2024.2.4,MacIntel,58.82352941,4148,,,,,,,,,,,,,,,,,,,,,,,,,,,,,,,,,,,,,574.805,577.804,,577.805,579.804,h,,,,579.806,582.805,,,,,,,Rasen,Pflege,1.099,,,,,,,570.806,574.804,582.805,582.805,,0,49,49,19,1,,,,,,,,,,,,,,,,,,,,,,,,,,,,,,,,,,,,,,,,,,,,,,,,,,,,,,,,,,,,,,,,,,,,,,,,,,,,,,,
,,879824,19,weiblich,2024-12-14_14h43.31.881,guess,2024.2.4,MacIntel,58.82352941,4148,,,,,,,,,,,,,,,,,,,,,,,,,,,,,,,,,,,,,586.806,589.804,,589.805,591.805,g,,,,591.807,594.804,,,,,,,Schwan,Taube,1.073,,,,,,,582.806,586.804,594.804,594.805,,0,50,50,69,1,,,,,,,,,,,,,,,,,,,,,,,,,,,,,,,,,,,,,,,,,,,,,,,,,,,,,,,,,,,,,,,,,,,,,,,,,,,,,,,
,,879824,19,weiblich,2024-12-14_14h43.31.881,guess,2024.2.4,MacIntel,58.82352941,4148,,,,,,,,,,,,,,,,,,,,,,,,,,,,,,,,,,,,,598.805,601.804,,601.805,603.804,,,,,603.806,606.804,,,,,,,Rauch,Nebel,,,,,,,,594.805,598.804,606.804,606.804,,0,51,51,6,1,,,,,,,,,,,,,,,,,,,,,,,,,,,,,,,,,,,,,,,,,,,,,,,,,,,,,,,,,,,,,,,,,,,,,,,,,,,,,,,
,,879824,19,weiblich,2024-12-14_14h43.31.881,guess,2024.2.4,MacIntel,58.82352941,4148,,,,,,,,,,,,,,,,,,,,,,,,,,,,,,,,,,,,,610.806,613.804,,613.805,615.804,g,,,,615.806,618.803,,,,,,,Humor,Komödie,1.153,,,,,,,606.805,610.804,618.803,618.803,,0,52,52,33,1,,,,,,,,,,,,,,,,,,,,,,,,,,,,,,,,,,,,,,,,,,,,,,,,,,,,,,,,,,,,,,,,,,,,,,,,,,,,,,,
,,879824,19,weiblich,2024-12-14_14h43.31.881,guess,2024.2.4,MacIntel,58.82352941,4148,,,,,,,,,,,,,,,,,,,,,,,,,,,,,,,,,,,,,622.805,625.803,,625.804,627.804,h,,,,627.805,630.804,,,,,,,Raum,Platz,0.667,,,,,,,618.804,622.804,630.804,630.804,,0,53,53,39,1,,,,,,,,,,,,,,,,,,,,,,,,,,,,,,,,,,,,,,,,,,,,,,,,,,,,,,,,,,,,,,,,,,,,,,,,,,,,,,,
,,879824,19,weiblich,2024-12-14_14h43.31.881,guess,2024.2.4,MacIntel,58.82352941,4148,,,,,,,,,,,,,,,,,,,,,,,,,,,,,,,,,,,,,634.806,637.804,,637.805,639.804,h,,,,639.806,642.804,,,,,,,Vampir,Geist,0.236,,,,,,,630.805,634.804,642.804,642.804,,0,54,54,22,1,,,,,,,,,,,,,,,,,,,,,,,,,,,,,,,,,,,,,,,,,,,,,,,,,,,,,,,,,,,,,,,,,,,,,,,,,,,,,,,
,,879824,19,weiblich,2024-12-14_14h43.31.881,guess,2024.2.4,MacIntel,58.82352941,4148,,,,,,,,,,,,,,,,,,,,,,,,,,,,,,,,,,,,,646.805,649.804,,649.805,651.804,h,,,,651.806,654.803,,,,,,,Chips,Salz,0.984,,,,,,,642.805,646.804,654.803,654.803,,0,55,55,1,1,,,,,,,,,,,,,,,,,,,,,,,,,,,,,,,,,,,,,,,,,,,,,,,,,,,,,,,,,,,,,,,,,,,,,,,,,,,,,,,
,,879824,19,weiblich,2024-12-14_14h43.31.881,guess,2024.2.4,MacIntel,58.82352941,4148,,,,,,,,,,,,,,,,,,,,,,,,,,,,,,,,,,,,,658.804,661.804,,661.805,663.803,g,,,,663.804,666.804,,,,,,,Geschwister,Eltern,1.335,,,,,,,654.804,658.803,666.804,666.804,,0,56,56,16,1,,,,,,,,,,,,,,,,,,,,,,,,,,,,,,,,,,,,,,,,,,,,,,,,,,,,,,,,,,,,,,,,,,,,,,,,,,,,,,,
,,879824,19,weiblich,2024-12-14_14h43.31.881,guess,2024.2.4,MacIntel,58.82352941,4148,,,,,,,,,,,,,,,,,,,,,,,,,,,,,,,,,,,,,670.805,673.804,,673.805,675.804,g,,,,675.805,678.803,,,,,,,Service,Kunde,1.59,,,,,,,666.804,670.803,678.804,678.804,,0,57,57,8,1,,,,,,,,,,,,,,,,,,,,,,,,,,,,,,,,,,,,,,,,,,,,,,,,,,,,,,,,,,,,,,,,,,,,,,,,,,,,,,,
,,879824,19,weiblich,2024-12-14_14h43.31.881,guess,2024.2.4,MacIntel,58.82352941,4148,,,,,,,,,,,,,,,,,,,,,,,,,,,,,,,,,,,,,682.805,685.803,,685.803,687.804,h,,,,687.806,690.804,,,,,,,Safari,Ausflug,0.421,,,,,,,678.805,682.804,690.804,690.804,,0,58,58,20,1,,,,,,,,,,,,,,,,,,,,,,,,,,,,,,,,,,,,,,,,,,,,,,,,,,,,,,,,,,,,,,,,,,,,,,,,,,,,,,,
,,879824,19,weiblich,2024-12-14_14h43.31.881,guess,2024.2.4,MacIntel,58.82352941,4148,,,,,,,,,,,,,,,,,,,,,,,,,,,,,,,,,,,,,694.805,697.803,,697.804,699.804,h,,,,699.805,702.804,,,,,,,Teller,Gabel,1.286,,,,,,,690.805,694.804,702.804,702.804,,0,59,59,44,1,,,,,,,,,,,,,,,,,,,,,,,,,,,,,,,,,,,,,,,,,,,,,,,,,,,,,,,,,,,,,,,,,,,,,,,,,,,,,,,
,,879824,19,weiblich,2024-12-14_14h43.31.881,guess,2024.2.4,MacIntel,58.82352941,4148,,,,,,,,,,,,,,,,,,,,,,,,,,,,,,,,,,,,,706.805,709.803,,709.804,711.803,g,,,,711.805,714.803,,,,,,,Schauspielerin,Frau,1.218,,,,,,,702.805,706.803,714.804,714.804,,0,60,60,66,1,,,,,,,,,,,,,,,,,,,,,,,,,,,,,,,,,,,,,,,,,,,,,,,,,,,,,,,,,,,,,,,,,,,,,,,,,,,,,,,
,,879824,19,weiblich,2024-12-14_14h43.31.881,guess,2024.2.4,MacIntel,58.82352941,4148,,,,,,,,,,,,,,,,,,,,,,,,,,,,,,,,,,,,,718.806,721.803,,721.804,723.803,h,,,,723.805,726.803,,,,,,,Karneval,Festival,0.584,,,,,,,714.804,718.803,726.803,726.803,,0,61,61,35,1,,,,,,,,,,,,,,,,,,,,,,,,,,,,,,,,,,,,,,,,,,,,,,,,,,,,,,,,,,,,,,,,,,,,,,,,,,,,,,,
,,879824,19,weiblich,2024-12-14_14h43.31.881,guess,2024.2.4,MacIntel,58.82352941,4148,,,,,,,,,,,,,,,,,,,,,,,,,,,,,,,,,,,,,730.804,733.803,,733.804,735.803,g,,,,735.804,738.803,,,,,,,Rose,Dorne,1.749,,,,,,,726.804,730.803,738.803,738.803,,0,62,62,65,1,,,,,,,,,,,,,,,,,,,,,,,,,,,,,,,,,,,,,,,,,,,,,,,,,,,,,,,,,,,,,,,,,,,,,,,,,,,,,,,
,,879824,19,weiblich,2024-12-14_14h43.31.881,guess,2024.2.4,MacIntel,58.82352941,4148,,,,,,,,,,,,,,,,,,,,,,,,,,,,,,,,,,,,,742.804,745.803,,745.804,747.803,h,,,,747.805,750.803,,,,,,,Zahnpasta,Minze,0.822,,,,,,,738.804,742.803,750.803,750.804,,0,63,63,76,1,,,,,,,,,,,,,,,,,,,,,,,,,,,,,,,,,,,,,,,,,,,,,,,,,,,,,,,,,,,,,,,,,,,,,,,,,,,,,,,
,,879824,19,weiblich,2024-12-14_14h43.31.881,guess,2024.2.4,MacIntel,58.82352941,4148,,,,,,,,,,,,,,,,,,,,,,,,,,,,,,,,,,,,,754.804,757.803,,757.804,759.803,g,,,,759.805,762.803,,,,,,,Eingeweide,Organ,1.396,,,,,,,750.804,754.803,762.803,762.804,,0,64,64,28,1,,,,,,,,,,,,,,,,,,,,,,,,,,,,,,,,,,,,,,,,,,,,,,,,,,,,,,,,,,,,,,,,,,,,,,,,,,,,,,,
,,879824,19,weiblich,2024-12-14_14h43.31.881,guess,2024.2.4,MacIntel,58.82352941,4148,,,,,,,,,,,,,,,,,,,,,,,,,,,,,,,,,,,,,766.805,769.803,,769.804,771.802,g,,,,771.804,774.803,,,,,,,Agent,Reise,0.451,,,,,,,762.804,766.803,774.803,774.803,,0,65,65,24,1,,,,,,,,,,,,,,,,,,,,,,,,,,,,,,,,,,,,,,,,,,,,,,,,,,,,,,,,,,,,,,,,,,,,,,,,,,,,,,,
,,879824,19,weiblich,2024-12-14_14h43.31.881,guess,2024.2.4,MacIntel,58.82352941,4148,,,,,,,,,,,,,,,,,,,,,,,,,,,,,,,,,,,,,778.804,781.803,,781.804,783.802,g,,,,783.804,786.803,,,,,,,Vers,Poesie,1.1,,,,,,,774.804,778.803,786.803,786.804,,0,66,66,46,1,,,,,,,,,,,,,,,,,,,,,,,,,,,,,,,,,,,,,,,,,,,,,,,,,,,,,,,,,,,,,,,,,,,,,,,,,,,,,,,
,,879824,19,weiblich,2024-12-14_14h43.31.881,guess,2024.2.4,MacIntel,58.82352941,4148,,,,,,,,,,,,,,,,,,,,,,,,,,,,,,,,,,,,,790.804,793.803,,793.804,795.803,h,,,,795.805,798.803,,,,,,,Shampoo,Seife,0.948,,,,,,,786.805,790.803,798.803,798.803,,0,67,67,9,1,,,,,,,,,,,,,,,,,,,,,,,,,,,,,,,,,,,,,,,,,,,,,,,,,,,,,,,,,,,,,,,,,,,,,,,,,,,,,,,
,,879824,19,weiblich,2024-12-14_14h43.31.881,guess,2024.2.4,MacIntel,58.82352941,4148,,,,,,,,,,,,,,,,,,,,,,,,,,,,,,,,,,,,,802.804,805.803,,805.803,807.802,g,,,,807.803,810.803,,,,,,,Frieden,Harmonie,1.099,,,,,,,798.804,802.803,810.803,810.803,,0,68,68,30,1,,,,,,,,,,,,,,,,,,,,,,,,,,,,,,,,,,,,,,,,,,,,,,,,,,,,,,,,,,,,,,,,,,,,,,,,,,,,,,,
,,879824,19,weiblich,2024-12-14_14h43.31.881,guess,2024.2.4,MacIntel,58.82352941,4148,,,,,,,,,,,,,,,,,,,,,,,,,,,,,,,,,,,,,814.804,817.802,,817.803,819.802,h,,,,819.804,822.803,,,,,,,Wasserfall,Felsen,0.783,,,,,,,810.803,814.803,822.803,822.803,,0,69,69,73,1,,,,,,,,,,,,,,,,,,,,,,,,,,,,,,,,,,,,,,,,,,,,,,,,,,,,,,,,,,,,,,,,,,,,,,,,,,,,,,,
,,879824,19,weiblich,2024-12-14_14h43.31.881,guess,2024.2.4,MacIntel,58.82352941,4148,,,,,,,,,,,,,,,,,,,,,,,,,,,,,,,,,,,,,826.803,829.803,,829.803,831.802,g,,,,831.804,834.802,,,,,,,Königreich,Schloss,0.298,,,,,,,822.803,826.802,834.802,834.803,,0,70,70,63,1,,,,,,,,,,,,,,,,,,,,,,,,,,,,,,,,,,,,,,,,,,,,,,,,,,,,,,,,,,,,,,,,,,,,,,,,,,,,,,,
,,879824,19,weiblich,2024-12-14_14h43.31.881,guess,2024.2.4,MacIntel,58.82352941,4148,,,,,,,,,,,,,,,,,,,,,,,,,,,,,,,,,,,,,838.804,841.802,,841.803,843.802,h,,,,843.804,846.803,,,,,,,Bad,Handtuch,0.932,,,,,,,834.803,838.802,846.803,846.803,,0,71,71,50,1,,,,,,,,,,,,,,,,,,,,,,,,,,,,,,,,,,,,,,,,,,,,,,,,,,,,,,,,,,,,,,,,,,,,,,,,,,,,,,,
,,879824,19,weiblich,2024-12-14_14h43.31.881,guess,2024.2.4,MacIntel,58.82352941,4148,,,,,,,,,,,,,,,,,,,,,,,,,,,,,,,,,,,,,850.803,853.802,,853.803,855.802,h,,,,855.804,858.802,,,,,,,Küche,Tisch,0.548,,,,,,,846.803,850.802,858.802,858.802,,0,72,72,18,1,,,,,,,,,,,,,,,,,,,,,,,,,,,,,,,,,,,,,,,,,,,,,,,,,,,,,,,,,,,,,,,,,,,,,,,,,,,,,,,
,,879824,19,weiblich,2024-12-14_14h43.31.881,guess,2024.2.4,MacIntel,58.82352941,4148,,,,,,,,,,,,,,,,,,,,,,,,,,,,,,,,,,,,,862.803,865.802,,865.803,867.802,f,,,,867.803,870.802,,,,,,,Fakt,Wissen,0.253,,,,,,,858.803,862.802,870.802,870.803,,0,73,73,4,1,,,,,,,,,,,,,,,,,,,,,,,,,,,,,,,,,,,,,,,,,,,,,,,,,,,,,,,,,,,,,,,,,,,,,,,,,,,,,,,
,,879824,19,weiblich,2024-12-14_14h43.31.881,guess,2024.2.4,MacIntel,58.82352941,4148,,,,,,,,,,,,,,,,,,,,,,,,,,,,,,,,,,,,,874.802,877.802,,877.802,879.802,h,,,,879.803,882.802,,,,,,,Zeichnung,Bleistift,1.601,,,,,,,870.803,874.802,882.802,882.803,,0,74,74,11,1,,,,,,,,,,,,,,,,,,,,,,,,,,,,,,,,,,,,,,,,,,,,,,,,,,,,,,,,,,,,,,,,,,,,,,,,,,,,,,,
,,879824,19,weiblich,2024-12-14_14h43.31.881,guess,2024.2.4,MacIntel,58.82352941,4148,,,,,,,,,,,,,,,,,,,,,,,,,,,,,,,,,,,,,886.802,889.802,,889.803,891.802,h,,,,891.803,894.802,,,,,,,Mauer,Straße,0.915,,,,,,,882.804,886.802,894.802,894.802,,0,75,75,64,1,,,,,,,,,,,,,,,,,,,,,,,,,,,,,,,,,,,,,,,,,,,,,,,,,,,,,,,,,,,,,,,,,,,,,,,,,,,,,,,
,,879824,19,weiblich,2024-12-14_14h43.31.881,guess,2024.2.4,MacIntel,58.82352941,4148,,,,,,,,,,,,,,,,,,,,,,,,,,,,,,,,,,,,,898.804,901.801,,901.802,903.802,,,,,903.803,906.802,,,,,,,Akrobatin,Seil,,,,,,,,894.803,898.802,906.802,906.802,,0,76,76,0,1,,,,,,,,,,,,,,,,,,,,,,,,,,,,,,,,,,,,,,,,,,,,,,,,,,,,,,,,,,,,,,,,,,,,,,,,,,,,,,,
,,879824,19,weiblich,2024-12-14_14h43.31.881,guess,2024.2.4,MacIntel,58.82352941,4148,,,,,,,,,,,,,,,,,,,,,,,,,,,,,,,,,,,,,910.803,913.802,,913.802,915.802,g,,,,915.803,918.802,,,,,,,Beutel,Sack,0.849,,,,,,,906.802,910.802,918.802,918.802,,0,77,77,13,1,,,,,,,,,,,,,,,,,,,,,,,,,,,,,,,,,,,,,,,,,,,,,,,,,,,,,,,,,,,,,,,,,,,,,,,,,,,,,,,
,,879824,19,weiblich,2024-12-14_14h43.31.881,guess,2024.2.4,MacIntel,58.82352941,4148,,,,,,,,,,,,,,,,,,,,,,,,,,,,,,,,,,,,,,,,,,,,,,,,,,,,,,,,,,,,,,,,,,,,,,,,,,,918.808,1039.785,space,120.945,,,,,,,,,,,,,,,,,,,,,,,,,,,,,,,,,,,,,,,,,,,,,,,,,,,,,,,,,,,,,,,,,,,,,,,,,
,,879824,19,weiblich,2024-12-14_14h43.31.881,guess,2024.2.4,MacIntel,58.82352941,4148,,,,,,,,,,,,,,,,,,,,,,,,,,,,,,,,,,,,,,,,,,,,,,,,,,,,,,,,,,,,,,,,,,,,,,,,,,,,,,,,1039.786,1049.552,space,9.729,,,,,,,,,,,,,,,,,,,,,,,,,,,,,,,,,,,,,,,,,,,,,,,,,,,,,,,,,,,,,,,,,,,,
,,879824,19,weiblich,2024-12-14_14h43.31.881,guess,2024.2.4,MacIntel,58.82352941,4148,,,,,,,,,,,,,,,,,,,,,,,,,,,,,,,,,,,,,,,,,,,,,,,,,,,,,,,,,,,,,,,,,,,,,,,,,,,,,,,,,,,,,1049.552,1055.553,space,5.962,,,,,,,,,,,,,,,,,,,,,,,,,,,,,,,,,,,,,,,,,,,,,,,,,,,,,,,,,,,,,,,
,,879824,19,weiblich,2024-12-14_14h43.31.881,guess,2024.2.4,MacIntel,58.82352941,4148,,,,,,,,,,,,,,,,,,,,,,,,,,,,,,,,,,,,,,,,,,,,,,,,,,,,,,Frühstück,Brot,,,,,,,,,,,,,,,,,,,,,,,,,,,,,,,,,,,1055.58,1059.551,1059.552,1062.551,,1062.552,1064.551,f,1.885,,1064.554,1064.558,,1064.559,1067.552,,0,0,0,1,1,,,,,,,,,,,,,,,,,,,,,,,,,,,,,,,,,,,,,,,,,
,,879824,19,weiblich,2024-12-14_14h43.31.881,guess,2024.2.4,MacIntel,58.82352941,4148,,,,,,,,,,,,,,,,,,,,,,,,,,,,,,,,,,,,,,,,,,,,,,,,,,,,,,Park,Baum,,,,,,,,,,,,,,,,,,,,,,,,,,,,,,,,,,,1067.553,1071.551,1071.552,1074.551,,1074.552,1076.55,g,1.633,,1076.552,1079.551,,1079.553,1082.55,,0,1,1,3,1,,,,,,,,,,,,,,,,,,,,,,,,,,,,,,,,,,,,,,,,,
,,879824,19,weiblich,2024-12-14_14h43.31.881,guess,2024.2.4,MacIntel,58.82352941,4148,,,,,,,,,,,,,,,,,,,,,,,,,,,,,,,,,,,,,,,,,,,,,,,,,,,,,,Wand,Fenster,,,,,,,,,,,,,,,,,,,,,,,,,,,,,,,,,,,1082.551,1086.551,1086.551,1089.551,,1089.552,1091.55,f,1.213,,1091.552,1091.554,,1091.555,1094.55,,0,2,2,0,1,,,,,,,,,,,,,,,,,,,,,,,,,,,,,,,,,,,,,,,,,
,,879824,19,weiblich,2024-12-14_14h43.31.881,guess,2024.2.4,MacIntel,58.82352941,4148,,,,,,,,,,,,,,,,,,,,,,,,,,,,,,,,,,,,,,,,,,,,,,,,,,,,,,Hund,Pfote,,,,,,,,,,,,,,,,,,,,,,,,,,,,,,,,,,,1094.551,1098.551,1098.552,1101.55,,1101.552,1103.551,f,1.138,,1103.553,1103.554,,1103.555,1106.55,,0,3,3,2,1,,,,,,,,,,,,,,,,,,,,,,,,,,,,,,,,,,,,,,,,,
,,879824,19,weiblich,2024-12-14_14h43.31.881,guess,2024.2.4,MacIntel,58.82352941,4148,,,,,,,,,,,,,,,,,,,,,,,,,,,,,,,,,,,,,,,,,,,,,,,,,,,,,,,,,,1106.552,1108.634,space,2.063,,,,,,,,,,,,,,,,,,,,,,,,,,,,,,,,,,,,,,,,,,,,,,,,,,,,,,,,,,,,,,,,,,,,,,,,,,,,,,,,,,,,,,,,,,
,,879824,19,weiblich,2024-12-14_14h43.31.881,guess,2024.2.4,MacIntel,58.82352941,4148,,,,,,,,,,,,,,,,,,,,,,,,,,,,,,,,,,,,,,,,,,,,,Guess,,,,,,,,,Tänzer,Musik,,,,,,,,,,1120.634,1120.634,,,,,,,,,,,,,,,,,,,,,,,,1108.645,1112.634,1112.635,1115.633,,1115.634,1117.633,g,1.047,,1117.635,1120.634,,,,,,,,,,0,0,0,42,1,,,,,,,,,,,,,,,,,,,,,,,,,,,,,,,,,,,,
,,879824,19,weiblich,2024-12-14_14h43.31.881,guess,2024.2.4,MacIntel,58.82352941,4148,,,,,,,,,,,,,,,,,,,,,,,,,,,,,,,,,,,,,,,,,,,,,,,,,,,,,,Beutel,Sack,,,,,,,,,,1129.637,1129.637,,,,,,,,,,,,,,,,,,,,,,,,1120.635,1124.634,1124.635,1127.633,,1127.634,1129.633,f,0.414,,1129.634,1129.637,,,,,,,,,,0,1,1,13,1,,,,,,,,,,,,,,,,,,,,,,,,,,,,,,,,,,,,
,,879824,19,weiblich,2024-12-14_14h43.31.881,guess,2024.2.4,MacIntel,58.82352941,4148,,,,,,,,,,,,,,,,,,,,,,,,,,,,,,,,,,,,,,,,,,,,,,,,,,,,,,Bad,Handtuch,,,,,,,,,,1141.634,1141.634,,,,,,,,,,,,,,,,,,,,,,,,1129.637,1133.633,1133.634,1136.633,,1136.634,1138.634,g,1.345,,1138.636,1141.634,,,,,,,,,,0,2,2,50,1,,,,,,,,,,,,,,,,,,,,,,,,,,,,,,,,,,,,
,,879824,19,weiblich,2024-12-14_14h43.31.881,guess,2024.2.4,MacIntel,58.82352941,4148,,,,,,,,,,,,,,,,,,,,,,,,,,,,,,,,,,,,,,,,,,,,,Read,,,,,,,,,Anführer,Boss,,,,,,,,,,1153.633,1153.633,,,,,,,,,,,,,,,,,,,,,,,,1141.634,1145.633,1145.634,1148.633,,1148.634,1150.633,g,1.684,,1150.635,1153.633,,,,,,,,,,0,3,3,12,1,,,,,,,,,,,,,,,,,,,,,,,,,,,,,,,,,,,,
,,879824,19,weiblich,2024-12-14_14h43.31.881,guess,2024.2.4,MacIntel,58.82352941,4148,,,,,,,,,,,,,,,,,,,,,,,,,,,,,,,,,,,,,,,,,,,,,Guess,,,,,,,,,Decke,Kissen,,,,,,,,,,1162.637,1162.637,,,,,,,,,,,,,,,,,,,,,,,,1153.633,1157.633,1157.634,1160.633,,1160.634,1162.633,f,1.447,,1162.635,1162.637,,,,,,,,,,0,4,4,26,1,,,,,,,,,,,,,,,,,,,,,,,,,,,,,,,,,,,,
,,879824,19,weiblich,2024-12-14_14h43.31.881,guess,2024.2.4,MacIntel,58.82352941,4148,,,,,,,,,,,,,,,,,,,,,,,,,,,,,,,,,,,,,,,,,,,,,,,,,,,,,,Floh,Käfer,,,,,,,,,,1174.632,1174.633,,,,,,,,,,,,,,,,,,,,,,,,1162.637,1166.633,1166.635,1169.633,,1169.634,1171.633,g,1.034,,1171.635,1174.632,,,,,,,,,,0,5,5,29,1,,,,,,,,,,,,,,,,,,,,,,,,,,,,,,,,,,,,
,,879824,19,weiblich,2024-12-14_14h43.31.881,guess,2024.2.4,MacIntel,58.82352941,4148,,,,,,,,,,,,,,,,,,,,,,,,,,,,,,,,,,,,,,,,,,,,,Guess,,,,,,,,,Bar,Alkohol,,,,,,,,,,1186.634,1186.634,,,,,,,,,,,,,,,,,,,,,,,,1174.633,1178.633,1178.634,1181.633,,1181.634,1183.633,g,0.715,,1183.635,1186.633,,,,,,,,,,0,6,6,51,1,,,,,,,,,,,,,,,,,,,,,,,,,,,,,,,,,,,,
,,879824,19,weiblich,2024-12-14_14h43.31.881,guess,2024.2.4,MacIntel,58.82352941,4148,,,,,,,,,,,,,,,,,,,,,,,,,,,,,,,,,,,,,,,,,,,,,Guess,,,,,,,,,Experiment,Versuch,,,,,,,,,,1198.633,1198.633,,,,,,,,,,,,,,,,,,,,,,,,1186.635,1190.633,1190.634,1193.633,,1193.634,1195.633,g,1.433,,1195.635,1198.633,,,,,,,,,,0,7,7,3,1,,,,,,,,,,,,,,,,,,,,,,,,,,,,,,,,,,,,
,,879824,19,weiblich,2024-12-14_14h43.31.881,guess,2024.2.4,MacIntel,58.82352941,4148,,,,,,,,,,,,,,,,,,,,,,,,,,,,,,,,,,,,,,,,,,,,,Read,,,,,,,,,Tee,Blätter,,,,,,,,,,1207.636,1207.636,,,,,,,,,,,,,,,,,,,,,,,,1198.634,1202.633,1202.634,1205.633,,1205.633,1207.633,f,0.851,,1207.634,1207.636,,,,,,,,,,0,8,8,71,1,,,,,,,,,,,,,,,,,,,,,,,,,,,,,,,,,,,,
,,879824,19,weiblich,2024-12-14_14h43.31.881,guess,2024.2.4,MacIntel,58.82352941,4148,,,,,,,,,,,,,,,,,,,,,,,,,,,,,,,,,,,,,,,,,,,,,Guess,,,,,,,,,Soldat,Kämpfer,,,,,,,,,,1216.637,1216.638,,,,,,,,,,,,,,,,,,,,,,,,1207.637,1211.633,1211.634,1214.632,,1214.634,1216.633,f,0.931,,1216.635,1216.637,,,,,,,,,,0,9,9,10,1,,,,,,,,,,,,,,,,,,,,,,,,,,,,,,,,,,,,
,,879824,19,weiblich,2024-12-14_14h43.31.881,guess,2024.2.4,MacIntel,58.82352941,4148,,,,,,,,,,,,,,,,,,,,,,,,,,,,,,,,,,,,,,,,,,,,,,,,,,,,,,Winkel,Kurve,,,,,,,,,,1228.633,1228.633,,,,,,,,,,,,,,,,,,,,,,,,1216.638,1220.632,1220.633,1223.633,,1223.635,1225.632,g,1.833,,1225.634,1228.633,,,,,,,,,,0,10,10,75,1,,,,,,,,,,,,,,,,,,,,,,,,,,,,,,,,,,,,
,,879824,19,weiblich,2024-12-14_14h43.31.881,guess,2024.2.4,MacIntel,58.82352941,4148,,,,,,,,,,,,,,,,,,,,,,,,,,,,,,,,,,,,,,,,,,,,,Read,,,,,,,,,Flotte,Boot,,,,,,,,,,1237.636,1237.636,,,,,,,,,,,,,,,,,,,,,,,,1228.634,1232.633,1232.634,1235.633,,1235.634,1237.633,f,0.846,,1237.634,1237.636,,,,,,,,,,0,11,11,54,1,,,,,,,,,,,,,,,,,,,,,,,,,,,,,,,,,,,,
,,879824,19,weiblich,2024-12-14_14h43.31.881,guess,2024.2.4,MacIntel,58.82352941,4148,,,,,,,,,,,,,,,,,,,,,,,,,,,,,,,,,,,,,,,,,,,,,,,,,,,,,,Gegenstand,Artikel,,,,,,,,,,1246.637,1246.637,,,,,,,,,,,,,,,,,,,,,,,,1237.636,1241.632,1241.633,1244.632,,1244.634,1246.633,,,,1246.635,1246.637,,,,,,,,,,0,12,12,32,1,,,,,,,,,,,,,,,,,,,,,,,,,,,,,,,,,,,,
,,879824,19,weiblich,2024-12-14_14h43.31.881,guess,2024.2.4,MacIntel,58.82352941,4148,,,,,,,,,,,,,,,,,,,,,,,,,,,,,,,,,,,,,,,,,,,,,Guess,,,,,,,,,Zimt,Rolle,,,,,,,,,,1255.636,1255.636,,,,,,,,,,,,,,,,,,,,,,,,1246.637,1250.633,1250.634,1253.633,,1253.633,1255.632,f,0.937,,1255.634,1255.635,,,,,,,,,,0,13,13,77,1,,,,,,,,,,,,,,,,,,,,,,,,,,,,,,,,,,,,
,,879824,19,weiblich,2024-12-14_14h43.31.881,guess,2024.2.4,MacIntel,58.82352941,4148,,,,,,,,,,,,,,,,,,,,,,,,,,,,,,,,,,,,,,,,,,,,,Guess,,,,,,,,,Geburtstag,Kerze,,,,,,,,,,1264.636,1264.636,,,,,,,,,,,,,,,,,,,,,,,,1255.636,1259.633,1259.634,1262.633,,1262.634,1264.633,,,,1264.635,1264.636,,,,,,,,,,0,14,14,15,1,,,,,,,,,,,,,,,,,,,,,,,,,,,,,,,,,,,,
,,879824,19,weiblich,2024-12-14_14h43.31.881,guess,2024.2.4,MacIntel,58.82352941,4148,,,,,,,,,,,,,,,,,,,,,,,,,,,,,,,,,,,,,,,,,,,,,Read,,,,,,,,,Diskussion,Vorlesung,,,,,,,,,,1273.635,1273.636,,,,,,,,,,,,,,,,,,,,,,,,1264.637,1268.632,1268.633,1271.632,,1271.633,1273.633,f,1.097,,1273.634,1273.635,,,,,,,,,,0,15,15,27,1,,,,,,,,,,,,,,,,,,,,,,,,,,,,,,,,,,,,
,,879824,19,weiblich,2024-12-14_14h43.31.881,guess,2024.2.4,MacIntel,58.82352941,4148,,,,,,,,,,,,,,,,,,,,,,,,,,,,,,,,,,,,,,,,,,,,,,,,,,,,,,Service,Kunde,,,,,,,,,,1285.633,1285.633,,,,,,,,,,,,,,,,,,,,,,,,1273.636,1277.632,1277.633,1280.632,,1280.633,1282.632,g,0.562,,1282.634,1285.632,,,,,,,,,,0,16,16,8,1,,,,,,,,,,,,,,,,,,,,,,,,,,,,,,,,,,,,
,,879824,19,weiblich,2024-12-14_14h43.31.881,guess,2024.2.4,MacIntel,58.82352941,4148,,,,,,,,,,,,,,,,,,,,,,,,,,,,,,,,,,,,,,,,,,,,,,,,,,,,,,Vampir,Geist,,,,,,,,,,1297.632,1297.632,,,,,,,,,,,,,,,,,,,,,,,,1285.634,1289.631,1289.633,1292.632,,1292.634,1294.632,g,1.568,,1294.634,1297.632,,,,,,,,,,0,17,17,22,1,,,,,,,,,,,,,,,,,,,,,,,,,,,,,,,,,,,,
,,879824,19,weiblich,2024-12-14_14h43.31.881,guess,2024.2.4,MacIntel,58.82352941,4148,,,,,,,,,,,,,,,,,,,,,,,,,,,,,,,,,,,,,,,,,,,,,,,,,,,,,,Häftling,Verurteilter,,,,,,,,,,1309.632,1309.632,,,,,,,,,,,,,,,,,,,,,,,,1297.633,1301.632,1301.633,1304.632,,1304.634,1306.632,g,0.463,,1306.634,1309.632,,,,,,,,,,0,18,18,55,1,,,,,,,,,,,,,,,,,,,,,,,,,,,,,,,,,,,,
,,879824,19,weiblich,2024-12-14_14h43.31.881,guess,2024.2.4,MacIntel,58.82352941,4148,,,,,,,,,,,,,,,,,,,,,,,,,,,,,,,,,,,,,,,,,,,,,Guess,,,,,,,,,Mappe,Buch,,,,,,,,,,1321.632,1321.632,,,,,,,,,,,,,,,,,,,,,,,,1309.633,1313.632,1313.632,1316.632,,1316.634,1318.632,g,1.829,,1318.635,1321.632,,,,,,,,,,0,19,19,36,1,,,,,,,,,,,,,,,,,,,,,,,,,,,,,,,,,,,,
,,879824,19,weiblich,2024-12-14_14h43.31.881,guess,2024.2.4,MacIntel,58.82352941,4148,,,,,,,,,,,,,,,,,,,,,,,,,,,,,,,,,,,,,,,,,,,,,Read,,,,,,,,,Gast,Zimmer,,,,,,,,,,1330.636,1330.636,,,,,,,,,,,,,,,,,,,,,,,,1321.633,1325.632,1325.632,1328.632,,1328.633,1330.632,f,1.197,,1330.634,1330.636,,,,,,,,,,0,20,20,14,1,,,,,,,,,,,,,,,,,,,,,,,,,,,,,,,,,,,,
,,879824,19,weiblich,2024-12-14_14h43.31.881,guess,2024.2.4,MacIntel,58.82352941,4148,,,,,,,,,,,,,,,,,,,,,,,,,,,,,,,,,,,,,,,,,,,,,Guess,,,,,,,,,Juwel,Gold,,,,,,,,,,1342.632,1342.632,,,,,,,,,,,,,,,,,,,,,,,,1330.636,1334.632,1334.633,1337.632,,1337.633,1339.631,g,1.085,,1339.633,1342.632,,,,,,,,,,0,21,21,57,1,,,,,,,,,,,,,,,,,,,,,,,,,,,,,,,,,,,,
,,879824,19,weiblich,2024-12-14_14h43.31.881,guess,2024.2.4,MacIntel,58.82352941,4148,,,,,,,,,,,,,,,,,,,,,,,,,,,,,,,,,,,,,,,,,,,,,Guess,,,,,,,,,Scheidung,Anwalt,,,,,,,,,,1354.632,1354.632,,,,,,,,,,,,,,,,,,,,,,,,1342.633,1346.632,1346.633,1349.632,,1349.633,1351.632,g,0.635,,1351.634,1354.632,,,,,,,,,,0,22,22,7,1,,,,,,,,,,,,,,,,,,,,,,,,,,,,,,,,,,,,
,,879824,19,weiblich,2024-12-14_14h43.31.881,guess,2024.2.4,MacIntel,58.82352941,4148,,,,,,,,,,,,,,,,,,,,,,,,,,,,,,,,,,,,,,,,,,,,,,,,,,,,,,Agent,Reise,,,,,,,,,,1366.632,1366.632,,,,,,,,,,,,,,,,,,,,,,,,1354.633,1358.632,1358.633,1361.632,,1361.633,1363.632,g,1.581,,1363.634,1366.632,,,,,,,,,,0,23,23,24,1,,,,,,,,,,,,,,,,,,,,,,,,,,,,,,,,,,,,
,,879824,19,weiblich,2024-12-14_14h43.31.881,guess,2024.2.4,MacIntel,58.82352941,4148,,,,,,,,,,,,,,,,,,,,,,,,,,,,,,,,,,,,,,,,,,,,,,,,,,,,,,Zug,Flugzeug,,,,,,,,,,1375.635,1375.635,,,,,,,,,,,,,,,,,,,,,,,,1366.633,1370.632,1370.633,1373.632,,1373.632,1375.632,f,1.967,,1375.633,1375.635,,,,,,,,,,0,24,24,48,1,,,,,,,,,,,,,,,,,,,,,,,,,,,,,,,,,,,,
,,879824,19,weiblich,2024-12-14_14h43.31.881,guess,2024.2.4,MacIntel,58.82352941,4148,,,,,,,,,,,,,,,,,,,,,,,,,,,,,,,,,,,,,,,,,,,,,,,,,,,,,,Humor,Komödie,,,,,,,,,,1387.632,1387.632,,,,,,,,,,,,,,,,,,,,,,,,1375.635,1379.632,1379.635,1382.632,,1382.633,1384.631,g,1.18,,1384.634,1387.632,,,,,,,,,,0,25,25,33,1,,,,,,,,,,,,,,,,,,,,,,,,,,,,,,,,,,,,
,,879824,19,weiblich,2024-12-14_14h43.31.881,guess,2024.2.4,MacIntel,58.82352941,4148,,,,,,,,,,,,,,,,,,,,,,,,,,,,,,,,,,,,,,,,,,,,,Read,,,,,,,,,Kino,Theater,,,,,,,,,,1396.634,1396.634,,,,,,,,,,,,,,,,,,,,,,,,1387.634,1391.632,1391.633,1394.631,,1394.632,1396.631,f,1.485,,1396.632,1396.634,,,,,,,,,,0,26,26,61,1,,,,,,,,,,,,,,,,,,,,,,,,,,,,,,,,,,,,
,,879824,19,weiblich,2024-12-14_14h43.31.881,guess,2024.2.4,MacIntel,58.82352941,4148,,,,,,,,,,,,,,,,,,,,,,,,,,,,,,,,,,,,,,,,,,,,,,,,,,,,,,Zahnpasta,Minze,,,,,,,,,,1405.634,1405.634,,,,,,,,,,,,,,,,,,,,,,,,1396.634,1400.631,1400.633,1403.632,,1403.633,1405.631,f,0.986,,1405.632,1405.634,,,,,,,,,,0,27,27,76,1,,,,,,,,,,,,,,,,,,,,,,,,,,,,,,,,,,,,
,,879824,19,weiblich,2024-12-14_14h43.31.881,guess,2024.2.4,MacIntel,58.82352941,4148,,,,,,,,,,,,,,,,,,,,,,,,,,,,,,,,,,,,,,,,,,,,,Guess,,,,,,,,,Streifen,Shirt,,,,,,,,,,1417.631,1417.631,,,,,,,,,,,,,,,,,,,,,,,,1405.634,1409.631,1409.632,1412.631,,1412.632,1414.631,g,1.267,,1414.633,1417.631,,,,,,,,,,0,28,28,70,1,,,,,,,,,,,,,,,,,,,,,,,,,,,,,,,,,,,,
,,879824,19,weiblich,2024-12-14_14h43.31.881,guess,2024.2.4,MacIntel,58.82352941,4148,,,,,,,,,,,,,,,,,,,,,,,,,,,,,,,,,,,,,,,,,,,,,,,,,,,,,,Insel,Meer,,,,,,,,,,1429.631,1429.632,,,,,,,,,,,,,,,,,,,,,,,,1417.631,1421.631,1421.632,1424.631,,1424.633,1426.631,g,1.251,,1426.633,1429.631,,,,,,,,,,0,29,29,34,1,,,,,,,,,,,,,,,,,,,,,,,,,,,,,,,,,,,,
,,879824,19,weiblich,2024-12-14_14h43.31.881,guess,2024.2.4,MacIntel,58.82352941,4148,,,,,,,,,,,,,,,,,,,,,,,,,,,,,,,,,,,,,,,,,,,,,Read,,,,,,,,,Golf,Loch,,,,,,,,,,1438.635,1438.635,,,,,,,,,,,,,,,,,,,,,,,,1429.632,1433.631,1433.632,1436.631,,1436.632,1438.631,f,0.87,,1438.633,1438.635,,,,,,,,,,0,30,30,17,1,,,,,,,,,,,,,,,,,,,,,,,,,,,,,,,,,,,,
,,879824,19,weiblich,2024-12-14_14h43.31.881,guess,2024.2.4,MacIntel,58.82352941,4148,,,,,,,,,,,,,,,,,,,,,,,,,,,,,,,,,,,,,,,,,,,,,Guess,,,,,,,,,Helm,Kopf,,,,,,,,,,1447.634,1447.634,,,,,,,,,,,,,,,,,,,,,,,,1438.635,1442.631,1442.632,1445.631,,1445.631,1447.631,f,1.786,,1447.633,1447.634,,,,,,,,,,0,31,31,56,1,,,,,,,,,,,,,,,,,,,,,,,,,,,,,,,,,,,,
,,879824,19,weiblich,2024-12-14_14h43.31.881,guess,2024.2.4,MacIntel,58.82352941,4148,,,,,,,,,,,,,,,,,,,,,,,,,,,,,,,,,,,,,,,,,,,,,Read,,,,,,,,,Vogel,Feder,,,,,,,,,,1456.636,1456.637,,,,,,,,,,,,,,,,,,,,,,,,1447.635,1451.631,1451.632,1454.631,,1454.632,1456.631,f,0.963,,1456.634,1456.636,,,,,,,,,,0,32,32,47,1,,,,,,,,,,,,,,,,,,,,,,,,,,,,,,,,,,,,
,,879824,19,weiblich,2024-12-14_14h43.31.881,guess,2024.2.4,MacIntel,58.82352941,4148,,,,,,,,,,,,,,,,,,,,,,,,,,,,,,,,,,,,,,,,,,,,,,,,,,,,,,Schauspielerin,Frau,,,,,,,,,,1465.634,1465.634,,,,,,,,,,,,,,,,,,,,,,,,1456.637,1460.631,1460.633,1463.631,,1463.633,1465.631,f,0.431,,1465.632,1465.634,,,,,,,,,,0,33,33,66,1,,,,,,,,,,,,,,,,,,,,,,,,,,,,,,,,,,,,
,,879824,19,weiblich,2024-12-14_14h43.31.881,guess,2024.2.4,MacIntel,58.82352941,4148,,,,,,,,,,,,,,,,,,,,,,,,,,,,,,,,,,,,,,,,,,,,,,,,,,,,,,Schlüssel,Ring,,,,,,,,,,1474.634,1474.634,,,,,,,,,,,,,,,,,,,,,,,,1465.634,1469.63,1469.631,1472.63,,1472.631,1474.63,f,0.34,,1474.632,1474.634,,,,,,,,,,0,34,34,40,1,,,,,,,,,,,,,,,,,,,,,,,,,,,,,,,,,,,,
,,879824,19,weiblich,2024-12-14_14h43.31.881,guess,2024.2.4,MacIntel,58.82352941,4148,,,,,,,,,,,,,,,,,,,,,,,,,,,,,,,,,,,,,,,,,,,,,Read,,,,,,,,,Publikum,Applaus,,,,,,,,,,1486.631,1486.631,,,,,,,,,,,,,,,,,,,,,,,,1474.634,1478.631,1478.632,1481.631,,1481.632,1483.63,g,0.767,,1483.632,1486.631,,,,,,,,,,0,35,35,37,1,,,,,,,,,,,,,,,,,,,,,,,,,,,,,,,,,,,,
,,879824,19,weiblich,2024-12-14_14h43.31.881,guess,2024.2.4,MacIntel,58.82352941,4148,,,,,,,,,,,,,,,,,,,,,,,,,,,,,,,,,,,,,,,,,,,,,,,,,,,,,,Schwan,Taube,,,,,,,,,,1498.631,1498.631,,,,,,,,,,,,,,,,,,,,,,,,1486.632,1490.631,1490.632,1493.631,,1493.631,1495.631,g,1.05,,1495.633,1498.631,,,,,,,,,,0,36,36,69,1,,,,,,,,,,,,,,,,,,,,,,,,,,,,,,,,,,,,
,,879824,19,weiblich,2024-12-14_14h43.31.881,guess,2024.2.4,MacIntel,58.82352941,4148,,,,,,,,,,,,,,,,,,,,,,,,,,,,,,,,,,,,,,,,,,,,,,,,,,,,,,Rose,Dorne,,,,,,,,,,1510.631,1510.631,,,,,,,,,,,,,,,,,,,,,,,,1498.632,1502.631,1502.632,1505.631,,1505.631,1507.631,g,1.186,,1507.633,1510.631,,,,,,,,,,0,37,37,65,1,,,,,,,,,,,,,,,,,,,,,,,,,,,,,,,,,,,,
,,879824,19,weiblich,2024-12-14_14h43.31.881,guess,2024.2.4,MacIntel,58.82352941,4148,,,,,,,,,,,,,,,,,,,,,,,,,,,,,,,,,,,,,,,,,,,,,Read,,,,,,,,,Kamin,Ziegel,,,,,,,,,,1519.635,1519.635,,,,,,,,,,,,,,,,,,,,,,,,1510.631,1514.631,1514.632,1517.631,,1517.631,1519.631,f,1.749,,1519.633,1519.635,,,,,,,,,,0,38,38,58,1,,,,,,,,,,,,,,,,,,,,,,,,,,,,,,,,,,,,
,,879824,19,weiblich,2024-12-14_14h43.31.881,guess,2024.2.4,MacIntel,58.82352941,4148,,,,,,,,,,,,,,,,,,,,,,,,,,,,,,,,,,,,,,,,,,,,,Guess,,,,,,,,,Statue,Monument,,,,,,,,,,1528.636,1530.031,space,,,,,,1.376,,,,,,,,,,,,,,,,,1519.635,1523.63,1523.631,1526.63,,1526.632,1528.631,f,1.264,,1528.633,1528.636,,,,,,,,,,0,39,39,41,1,,,,,,,,,,,,,,,,,,,,,,,,,,,,,,,,,,,,
,,879824,19,weiblich,2024-12-14_14h43.31.881,guess,2024.2.4,MacIntel,58.82352941,4148,,,,,,,,,,,,,,,,,,,,,,,,,,,,,,,,,,,,,,,,,,,,,Read,,,,,,,,,Wein,Abendessen,,,,,,,,,,1542.03,1542.03,,,,,,,,,,,,,,,,,,,,,,,,1530.032,1534.03,1534.031,1537.031,,1537.032,1539.031,g,0.647,,1539.033,1542.03,,,,,,,,,,0,40,40,74,1,,,,,,,,,,,,,,,,,,,,,,,,,,,,,,,,,,,,
,,879824,19,weiblich,2024-12-14_14h43.31.881,guess,2024.2.4,MacIntel,58.82352941,4148,,,,,,,,,,,,,,,,,,,,,,,,,,,,,,,,,,,,,,,,,,,,,Guess,,,,,,,,,Garage,Haus,,,,,,,,,,1551.034,1551.034,,,,,,,,,,,,,,,,,,,,,,,,1542.031,1546.03,1546.031,1549.03,,1549.031,1551.03,f,1.38,,1551.032,1551.034,,,,,,,,,,0,41,41,31,1,,,,,,,,,,,,,,,,,,,,,,,,,,,,,,,,,,,,
,,879824,19,weiblich,2024-12-14_14h43.31.881,guess,2024.2.4,MacIntel,58.82352941,4148,,,,,,,,,,,,,,,,,,,,,,,,,,,,,,,,,,,,,,,,,,,,,,,,,,,,,,Safari,Ausflug,,,,,,,,,,1563.031,1563.031,,,,,,,,,,,,,,,,,,,,,,,,1551.034,1555.03,1555.031,1558.03,,1558.03,1560.03,g,1.085,,1560.032,1563.03,,,,,,,,,,0,42,42,20,1,,,,,,,,,,,,,,,,,,,,,,,,,,,,,,,,,,,,
,,879824,19,weiblich,2024-12-14_14h43.31.881,guess,2024.2.4,MacIntel,58.82352941,4148,,,,,,,,,,,,,,,,,,,,,,,,,,,,,,,,,,,,,,,,,,,,,,,,,,,,,,Küche,Tisch,,,,,,,,,,1572.033,1572.034,,,,,,,,,,,,,,,,,,,,,,,,1563.031,1567.03,1567.032,1570.03,,1570.031,1572.03,,,,1572.032,1572.033,,,,,,,,,,0,43,43,18,1,,,,,,,,,,,,,,,,,,,,,,,,,,,,,,,,,,,,
,,879824,19,weiblich,2024-12-14_14h43.31.881,guess,2024.2.4,MacIntel,58.82352941,4148,,,,,,,,,,,,,,,,,,,,,,,,,,,,,,,,,,,,,,,,,,,,,,,,,,,,,,Brise,Luft,,,,,,,,,,1581.033,1581.033,,,,,,,,,,,,,,,,,,,,,,,,1572.034,1576.03,1576.031,1579.03,,1579.031,1581.03,f,0.783,,1581.031,1581.033,,,,,,,,,,0,44,44,25,1,,,,,,,,,,,,,,,,,,,,,,,,,,,,,,,,,,,,
,,879824,19,weiblich,2024-12-14_14h43.31.881,guess,2024.2.4,MacIntel,58.82352941,4148,,,,,,,,,,,,,,,,,,,,,,,,,,,,,,,,,,,,,,,,,,,,,Read,,,,,,,,,Schuh,Stiefel,,,,,,,,,,1590.033,1590.033,,,,,,,,,,,,,,,,,,,,,,,,1581.033,1585.03,1585.031,1588.03,,1588.031,1590.03,f,0.765,,1590.031,1590.033,,,,,,,,,,0,45,45,68,1,,,,,,,,,,,,,,,,,,,,,,,,,,,,,,,,,,,,
,,879824,19,weiblich,2024-12-14_14h43.31.881,guess,2024.2.4,MacIntel,58.82352941,4148,,,,,,,,,,,,,,,,,,,,,,,,,,,,,,,,,,,,,,,,,,,,,Guess,,,,,,,,,Klebstoff,Papier,,,,,,,,,,1602.03,1602.03,,,,,,,,,,,,,,,,,,,,,,,,1590.033,1594.03,1594.031,1597.03,,1597.031,1599.03,g,0.667,,1599.032,1602.03,,,,,,,,,,0,46,46,62,1,,,,,,,,,,,,,,,,,,,,,,,,,,,,,,,,,,,,
,,879824,19,weiblich,2024-12-14_14h43.31.881,guess,2024.2.4,MacIntel,58.82352941,4148,,,,,,,,,,,,,,,,,,,,,,,,,,,,,,,,,,,,,,,,,,,,,,,,,,,,,,Mauer,Straße,,,,,,,,,,1611.035,1611.035,,,,,,,,,,,,,,,,,,,,,,,,1602.03,1606.03,1606.03,1609.03,,1609.032,1611.03,f,1.035,,1611.033,1611.035,,,,,,,,,,0,47,47,64,1,,,,,,,,,,,,,,,,,,,,,,,,,,,,,,,,,,,,
,,879824,19,weiblich,2024-12-14_14h43.31.881,guess,2024.2.4,MacIntel,58.82352941,4148,,,,,,,,,,,,,,,,,,,,,,,,,,,,,,,,,,,,,,,,,,,,,Guess,,,,,,,,,Schnorchel,Flossen,,,,,,,,,,1623.03,1623.031,,,,,,,,,,,,,,,,,,,,,,,,1611.036,1615.03,1615.031,1618.03,,1618.031,1620.03,g,0.724,,1620.031,1623.03,,,,,,,,,,0,48,48,67,1,,,,,,,,,,,,,,,,,,,,,,,,,,,,,,,,,,,,
,,879824,19,weiblich,2024-12-14_14h43.31.881,guess,2024.2.4,MacIntel,58.82352941,4148,,,,,,,,,,,,,,,,,,,,,,,,,,,,,,,,,,,,,,,,,,,,,Guess,,,,,,,,,Vergangenheit,Erinnerungen,,,,,,,,,,1632.034,1632.034,,,,,,,,,,,,,,,,,,,,,,,,1623.032,1627.03,1627.031,1630.029,,1630.03,1632.03,f,1.448,,1632.032,1632.034,,,,,,,,,,0,49,49,23,1,,,,,,,,,,,,,,,,,,,,,,,,,,,,,,,,,,,,
,,879824,19,weiblich,2024-12-14_14h43.31.881,guess,2024.2.4,MacIntel,58.82352941,4148,,,,,,,,,,,,,,,,,,,,,,,,,,,,,,,,,,,,,,,,,,,,,,,,,,,,,,Karneval,Festival,,,,,,,,,,1641.035,1641.035,,,,,,,,,,,,,,,,,,,,,,,,1632.035,1636.03,1636.031,1639.03,,1639.03,1641.03,,,,1641.033,1641.035,,,,,,,,,,0,50,50,35,1,,,,,,,,,,,,,,,,,,,,,,,,,,,,,,,,,,,,
,,879824,19,weiblich,2024-12-14_14h43.31.881,guess,2024.2.4,MacIntel,58.82352941,4148,,,,,,,,,,,,,,,,,,,,,,,,,,,,,,,,,,,,,,,,,,,,,,,,,,,,,,Akrobatin,Seil,,,,,,,,,,1650.032,1650.032,,,,,,,,,,,,,,,,,,,,,,,,1641.036,1645.03,1645.031,1648.03,,1648.03,1650.029,f,1.812,,1650.03,1650.031,,,,,,,,,,0,51,51,0,1,,,,,,,,,,,,,,,,,,,,,,,,,,,,,,,,,,,,
,,879824,19,weiblich,2024-12-14_14h43.31.881,guess,2024.2.4,MacIntel,58.82352941,4148,,,,,,,,,,,,,,,,,,,,,,,,,,,,,,,,,,,,,,,,,,,,,Read,,,,,,,,,Leistung,Ehre,,,,,,,,,,1659.035,1659.035,,,,,,,,,,,,,,,,,,,,,,,,1650.032,1654.03,1654.031,1657.03,,1657.031,1659.03,f,1.031,,1659.033,1659.035,,,,,,,,,,0,52,52,5,1,,,,,,,,,,,,,,,,,,,,,,,,,,,,,,,,,,,,
,,879824,19,weiblich,2024-12-14_14h43.31.881,guess,2024.2.4,MacIntel,58.82352941,4148,,,,,,,,,,,,,,,,,,,,,,,,,,,,,,,,,,,,,,,,,,,,,,,,,,,,,,Raum,Platz,,,,,,,,,,1668.034,1668.034,,,,,,,,,,,,,,,,,,,,,,,,1659.036,1663.029,1663.03,1666.029,,1666.03,1668.03,f,1.024,,1668.032,1668.033,,,,,,,,,,0,53,53,39,1,,,,,,,,,,,,,,,,,,,,,,,,,,,,,,,,,,,,
,,879824,19,weiblich,2024-12-14_14h43.31.881,guess,2024.2.4,MacIntel,58.82352941,4148,,,,,,,,,,,,,,,,,,,,,,,,,,,,,,,,,,,,,,,,,,,,,Guess,,,,,,,,,Beweis,Gericht,,,,,,,,,,1680.03,1680.03,,,,,,,,,,,,,,,,,,,,,,,,1668.034,1672.029,1672.031,1675.03,,1675.031,1677.029,g,1.767,,1677.031,1680.029,,,,,,,,,,0,54,54,52,1,,,,,,,,,,,,,,,,,,,,,,,,,,,,,,,,,,,,
,,879824,19,weiblich,2024-12-14_14h43.31.881,guess,2024.2.4,MacIntel,58.82352941,4148,,,,,,,,,,,,,,,,,,,,,,,,,,,,,,,,,,,,,,,,,,,,,Read,,,,,,,,,Teleskop,Mikroskop,,,,,,,,,,1689.034,1689.034,,,,,,,,,,,,,,,,,,,,,,,,1680.031,1684.028,1684.029,1687.03,,1687.031,1689.029,,,,1689.032,1689.034,,,,,,,,,,0,55,55,43,1,,,,,,,,,,,,,,,,,,,,,,,,,,,,,,,,,,,,
,,879824,19,weiblich,2024-12-14_14h43.31.881,guess,2024.2.4,MacIntel,58.82352941,4148,,,,,,,,,,,,,,,,,,,,,,,,,,,,,,,,,,,,,,,,,,,,,,,,,,,,,,Eingeweide,Organ,,,,,,,,,,1701.029,1701.029,,,,,,,,,,,,,,,,,,,,,,,,1689.035,1693.029,1693.03,1696.029,,1696.03,1698.029,g,1.001,,1698.03,1701.029,,,,,,,,,,0,56,56,28,1,,,,,,,,,,,,,,,,,,,,,,,,,,,,,,,,,,,,
,,879824,19,weiblich,2024-12-14_14h43.31.881,guess,2024.2.4,MacIntel,58.82352941,4148,,,,,,,,,,,,,,,,,,,,,,,,,,,,,,,,,,,,,,,,,,,,,,,,,,,,,,Frieden,Harmonie,,,,,,,,,,1713.029,1713.029,,,,,,,,,,,,,,,,,,,,,,,,1701.03,1705.029,1705.03,1708.029,,1708.03,1710.029,g,1.419,,1710.031,1713.029,,,,,,,,,,0,57,57,30,1,,,,,,,,,,,,,,,,,,,,,,,,,,,,,,,,,,,,
,,879824,19,weiblich,2024-12-14_14h43.31.881,guess,2024.2.4,MacIntel,58.82352941,4148,,,,,,,,,,,,,,,,,,,,,,,,,,,,,,,,,,,,,,,,,,,,,,,,,,,,,,Rasen,Pflege,,,,,,,,,,1722.032,1722.032,,,,,,,,,,,,,,,,,,,,,,,,1713.029,1717.028,1717.029,1720.029,,1720.03,1722.029,f,1.316,,1722.031,1722.032,,,,,,,,,,0,58,58,19,1,,,,,,,,,,,,,,,,,,,,,,,,,,,,,,,,,,,,
,,879824,19,weiblich,2024-12-14_14h43.31.881,guess,2024.2.4,MacIntel,58.82352941,4148,,,,,,,,,,,,,,,,,,,,,,,,,,,,,,,,,,,,,,,,,,,,,,,,,,,,,,Chips,Salz,,,,,,,,,,1734.029,1734.029,,,,,,,,,,,,,,,,,,,,,,,,1722.033,1726.029,1726.038,1729.03,,1729.031,1731.029,g,0.882,,1731.032,1734.029,,,,,,,,,,0,59,59,1,1,,,,,,,,,,,,,,,,,,,,,,,,,,,,,,,,,,,,
,,879824,19,weiblich,2024-12-14_14h43.31.881,guess,2024.2.4,MacIntel,58.82352941,4148,,,,,,,,,,,,,,,,,,,,,,,,,,,,,,,,,,,,,,,,,,,,,Read,,,,,,,,,Definition,Begriff,,,,,,,,,,1743.033,1743.033,,,,,,,,,,,,,,,,,,,,,,,,1734.029,1738.029,1738.03,1741.029,,1741.03,1743.029,,,,1743.031,1743.033,,,,,,,,,,0,60,60,2,1,,,,,,,,,,,,,,,,,,,,,,,,,,,,,,,,,,,,
,,879824,19,weiblich,2024-12-14_14h43.31.881,guess,2024.2.4,MacIntel,58.82352941,4148,,,,,,,,,,,,,,,,,,,,,,,,,,,,,,,,,,,,,,,,,,,,,,,,,,,,,,Königreich,Schloss,,,,,,,,,,1755.029,1755.03,,,,,,,,,,,,,,,,,,,,,,,,1743.033,1747.029,1747.031,1750.029,,1750.029,1752.029,g,1.533,,1752.031,1755.029,,,,,,,,,,0,61,61,63,1,,,,,,,,,,,,,,,,,,,,,,,,,,,,,,,,,,,,
,,879824,19,weiblich,2024-12-14_14h43.31.881,guess,2024.2.4,MacIntel,58.82352941,4148,,,,,,,,,,,,,,,,,,,,,,,,,,,,,,,,,,,,,,,,,,,,,,,,,,,,,,Zeichnung,Bleistift,,,,,,,,,,1767.029,1767.03,,,,,,,,,,,,,,,,,,,,,,,,1755.031,1759.029,1759.03,1762.028,,1762.029,1764.029,g,1.606,,1764.031,1767.029,,,,,,,,,,0,62,62,11,1,,,,,,,,,,,,,,,,,,,,,,,,,,,,,,,,,,,,
,,879824,19,weiblich,2024-12-14_14h43.31.881,guess,2024.2.4,MacIntel,58.82352941,4148,,,,,,,,,,,,,,,,,,,,,,,,,,,,,,,,,,,,,,,,,,,,,,,,,,,,,,Zunge,Backe,,,,,,,,,,1776.032,1776.033,,,,,,,,,,,,,,,,,,,,,,,,1767.031,1771.028,1771.029,1774.029,,1774.03,1776.029,,,,1776.031,1776.032,,,,,,,,,,0,63,63,49,1,,,,,,,,,,,,,,,,,,,,,,,,,,,,,,,,,,,,
,,879824,19,weiblich,2024-12-14_14h43.31.881,guess,2024.2.4,MacIntel,58.82352941,4148,,,,,,,,,,,,,,,,,,,,,,,,,,,,,,,,,,,,,,,,,,,,,Read,,,,,,,,,Kind,Junge,,,,,,,,,,1785.031,1785.031,,,,,,,,,,,,,,,,,,,,,,,,1776.033,1780.028,1780.029,1783.029,,1783.03,1785.028,,,,1785.029,1785.031,,,,,,,,,,0,64,64,60,1,,,,,,,,,,,,,,,,,,,,,,,,,,,,,,,,,,,,
,,879824,19,weiblich,2024-12-14_14h43.31.881,guess,2024.2.4,MacIntel,58.82352941,4148,,,,,,,,,,,,,,,,,,,,,,,,,,,,,,,,,,,,,,,,,,,,,Read,,,,,,,,,Kante,Messer,,,,,,,,,,1794.032,1794.032,,,,,,,,,,,,,,,,,,,,,,,,1785.031,1789.028,1789.029,1792.028,,1792.029,1794.028,f,1.364,,1794.03,1794.031,,,,,,,,,,0,65,65,59,1,,,,,,,,,,,,,,,,,,,,,,,,,,,,,,,,,,,,
,,879824,19,weiblich,2024-12-14_14h43.31.881,guess,2024.2.4,MacIntel,58.82352941,4148,,,,,,,,,,,,,,,,,,,,,,,,,,,,,,,,,,,,,,,,,,,,,,,,,,,,,,Shampoo,Seife,,,,,,,,,,1806.029,1806.029,,,,,,,,,,,,,,,,,,,,,,,,1794.032,1798.028,1798.029,1801.028,,1801.029,1803.029,g,1.246,,1803.031,1806.028,,,,,,,,,,0,66,66,9,1,,,,,,,,,,,,,,,,,,,,,,,,,,,,,,,,,,,,
,,879824,19,weiblich,2024-12-14_14h43.31.881,guess,2024.2.4,MacIntel,58.82352941,4148,,,,,,,,,,,,,,,,,,,,,,,,,,,,,,,,,,,,,,,,,,,,,,,,,,,,,,Geschwister,Eltern,,,,,,,,,,1818.028,1818.028,,,,,,,,,,,,,,,,,,,,,,,,1806.029,1810.028,1810.029,1813.028,,1813.029,1815.028,g,1.096,,1815.031,1818.028,,,,,,,,,,0,67,67,16,1,,,,,,,,,,,,,,,,,,,,,,,,,,,,,,,,,,,,
,,879824,19,weiblich,2024-12-14_14h43.31.881,guess,2024.2.4,MacIntel,58.82352941,4148,,,,,,,,,,,,,,,,,,,,,,,,,,,,,,,,,,,,,,,,,,,,,,,,,,,,,,Vers,Poesie,,,,,,,,,,1827.033,1827.034,,,,,,,,,,,,,,,,,,,,,,,,1818.028,1822.028,1822.029,1825.029,,1825.03,1827.028,,,,1827.03,1827.033,,,,,,,,,,0,68,68,46,1,,,,,,,,,,,,,,,,,,,,,,,,,,,,,,,,,,,,
,,879824,19,weiblich,2024-12-14_14h43.31.881,guess,2024.2.4,MacIntel,58.82352941,4148,,,,,,,,,,,,,,,,,,,,,,,,,,,,,,,,,,,,,,,,,,,,,,,,,,,,,,Fakt,Wissen,,,,,,,,,,1839.028,1839.028,,,,,,,,,,,,,,,,,,,,,,,,1827.034,1831.028,1831.03,1834.028,,1834.029,1836.028,g,1.702,,1836.03,1839.028,,,,,,,,,,0,69,69,4,1,,,,,,,,,,,,,,,,,,,,,,,,,,,,,,,,,,,,
,,879824,19,weiblich,2024-12-14_14h43.31.881,guess,2024.2.4,MacIntel,58.82352941,4148,,,,,,,,,,,,,,,,,,,,,,,,,,,,,,,,,,,,,,,,,,,,,Guess,,,,,,,,,Sitzgurt,Gesetz,,,,,,,,,,1848.032,1848.032,,,,,,,,,,,,,,,,,,,,,,,,1839.029,1843.028,1843.029,1846.028,,1846.029,1848.028,f,1.118,,1848.03,1848.032,,,,,,,,,,0,70,70,21,1,,,,,,,,,,,,,,,,,,,,,,,,,,,,,,,,,,,,
,,879824,19,weiblich,2024-12-14_14h43.31.881,guess,2024.2.4,MacIntel,58.82352941,4148,,,,,,,,,,,,,,,,,,,,,,,,,,,,,,,,,,,,,,,,,,,,,,,,,,,,,,Blumen,Bouquet,,,,,,,,,,1857.032,1857.032,,,,,,,,,,,,,,,,,,,,,,,,1848.032,1852.028,1852.029,1855.028,,1855.029,1857.028,,,,1857.03,1857.032,,,,,,,,,,0,71,71,53,1,,,,,,,,,,,,,,,,,,,,,,,,,,,,,,,,,,,,
,,879824,19,weiblich,2024-12-14_14h43.31.881,guess,2024.2.4,MacIntel,58.82352941,4148,,,,,,,,,,,,,,,,,,,,,,,,,,,,,,,,,,,,,,,,,,,,,,,,,,,,,,Wasserfall,Felsen,,,,,,,,,,1869.028,1869.028,,,,,,,,,,,,,,,,,,,,,,,,1857.032,1861.028,1861.029,1864.028,,1864.029,1866.028,g,1.322,,1866.03,1869.028,,,,,,,,,,0,72,72,73,1,,,,,,,,,,,,,,,,,,,,,,,,,,,,,,,,,,,,
,,879824,19,weiblich,2024-12-14_14h43.31.881,guess,2024.2.4,MacIntel,58.82352941,4148,,,,,,,,,,,,,,,,,,,,,,,,,,,,,,,,,,,,,,,,,,,,,,,,,,,,,,Teller,Gabel,,,,,,,,,,1878.03,1878.03,,,,,,,,,,,,,,,,,,,,,,,,1869.029,1873.028,1873.029,1876.028,,1876.029,1878.027,f,1.413,,1878.028,1878.03,,,,,,,,,,0,73,73,44,1,,,,,,,,,,,,,,,,,,,,,,,,,,,,,,,,,,,,
,,879824,19,weiblich,2024-12-14_14h43.31.881,guess,2024.2.4,MacIntel,58.82352941,4148,,,,,,,,,,,,,,,,,,,,,,,,,,,,,,,,,,,,,,,,,,,,,Read,,,,,,,,,Traube,Rosine,,,,,,,,,,1887.031,1887.031,,,,,,,,,,,,,,,,,,,,,,,,1878.03,1882.027,1882.028,1885.028,,1885.029,1887.028,f,0.612,,1887.029,1887.031,,,,,,,,,,0,74,74,72,1,,,,,,,,,,,,,,,,,,,,,,,,,,,,,,,,,,,,
,,879824,19,weiblich,2024-12-14_14h43.31.881,guess,2024.2.4,MacIntel,58.82352941,4148,,,,,,,,,,,,,,,,,,,,,,,,,,,,,,,,,,,,,,,,,,,,,,,,,,,,,,Rauch,Nebel,,,,,,,,,,1896.031,1896.031,,,,,,,,,,,,,,,,,,,,,,,,1887.031,1891.028,1891.029,1894.027,,1894.028,1896.028,f,0.634,,1896.029,1896.031,,,,,,,,,,0,75,75,6,1,,,,,,,,,,,,,,,,,,,,,,,,,,,,,,,,,,,,
,,879824,19,weiblich,2024-12-14_14h43.31.881,guess,2024.2.4,MacIntel,58.82352941,4148,,,,,,,,,,,,,,,,,,,,,,,,,,,,,,,,,,,,,,,,,,,,,Read,,,,,,,,,Tradition,Weihnachten,,,,,,,,,,1905.031,1905.031,,,,,,,,,,,,,,,,,,,,,,,,1896.031,1900.028,1900.029,1903.028,,1903.029,1905.028,,,,1905.03,1905.031,,,,,,,,,,0,76,76,45,1,,,,,,,,,,,,,,,,,,,,,,,,,,,,,,,,,,,,
,,879824,19,weiblich,2024-12-14_14h43.31.881,guess,2024.2.4,MacIntel,58.82352941,4148,,,,,,,,,,,,,,,,,,,,,,,,,,,,,,,,,,,,,,,,,,,,,Read,,,,,,,,,Pumpe,Reifen,,,,,,,,,,1914.03,1914.03,,,,,,,,,,,,,,,,,,,,,,,,1905.031,1909.028,1909.03,1912.028,,1912.029,1914.027,f,1.336,,1914.029,1914.03,,,,,,,,,,0,77,77,38,1,,,,,,,,,,,,,,,,,,,,,,,,,,,,,,,,,,,,
,,879824,19,weiblich,2024-12-14_14h43.31.881,guess,2024.2.4,MacIntel,58.82352941,4148,,,,,,,,,,,,,,,,,,,,,,,,,,,,,,,,,,,,,,,,,,,,,,,,,,,,,,,,,,,,,,,,,,,,,,,,,,,,,,,,,,,,,,,,,,,,,,,,,,,,,,,,,,,,,,,,,,,,1914.044,1921.962,space,7.886,,,,,,,,,,,,,,,,,,,,,,,,,,,,,,,,
,,879824,19,weiblich,2024-12-14_14h43.31.881,guess,2024.2.4,MacIntel,58.82352941,4148,,,,,,,,,,,,,,,,,,,,,,,,,,,,,,,,,,,,,,,,,,,,,,,,,,,,,,,,,,,,,,,,,,,,,,,,,,,,,,,,,,,,,,,,,,,,,,,,,,,,,,,,,,,,,,,,,,,,,,,,,1921.963,1927.662,space,5.672,,,,,,,,,,,,,,,,,,,,,,,,,,,
,,879824,19,weiblich,2024-12-14_14h43.31.881,guess,2024.2.4,MacIntel,58.82352941,4148,,,,,,,,,,,,,,,,,,,,,,,,,,,,,,,,,,,,,,,,,,,,,,,,,,,,,,,,,,,,,,,,,,,,,,,,,,,,,,,,,,,,,,,,,,,,,,,,,,,,,,,,,,,,,,,,,,,,,,,,,,,,,,1927.662,1936.929,space,9.221,,,,,,,,,,,,,,,,,,,,,,
,,879824,19,weiblich,2024-12-14_14h43.31.881,guess,2024.2.4,MacIntel,58.82352941,4148,,,,,,,,,,,,,,,,,,,,,,,,,,,,,,,,,,,,,,,,,,,,,,,,,,,,,,Karneval,,,,,,,,,,,,,,,,,,,,,,,,,,,,,,,,,,,,1936.957,1940.927,,,,,,,,,,,,,,,,,,,,,,,,,,,,,,,,,,,,,,,,,1940.929,1943.93,f,2.675,,,1943.931,1943.933,,0,0,0,35,1,Festival,target,,,,
,,879824,19,weiblich,2024-12-14_14h43.31.881,guess,2024.2.4,MacIntel,58.82352941,4148,,,,,,,,,,,,,,,,,,,,,,,,,,,,,,,,,,,,,,,,,,,,,,,,,,,,,,Wasserfall,,,,,,,,,,,,,,,,,,,,,,,,,,,,,,,,,,,,1943.933,1947.927,,,,,,,,,,,,,,,,,,,,,,,,,,,,,,,,,,,,,,,,,1947.929,1950.928,g,1.582,,,1950.928,1950.928,,0,1,1,73,1,Felsen,target,,,,
,,879824,19,weiblich,2024-12-14_14h43.31.881,guess,2024.2.4,MacIntel,58.82352941,4148,,,,,,,,,,,,,,,,,,,,,,,,,,,,,,,,,,,,,,,,,,,,,,,,,,,,,,Zeichnung,,,,,,,,,,,,,,,,,,,,,,,,,,,,,,,,,,,,1950.929,1954.928,,,,,,,,,,,,,,,,,,,,,,,,,,,,,,,,,,,,,,,,Mediator,1954.929,1957.928,g,1.966,,,1957.928,1957.928,,0,2,2,113,1,Kunst,mediator2,,,,
,,879824,19,weiblich,2024-12-14_14h43.31.881,guess,2024.2.4,MacIntel,58.82352941,4148,,,,,,,,,,,,,,,,,,,,,,,,,,,,,,,,,,,,,,,,,,,,,,,,,,,,,,Rauch,,,,,,,,,,,,,,,,,,,,,,,,,,,,,,,,,,,,1957.928,1961.926,,,,,,,,,,,,,,,,,,,,,,,,,,,,,,,,,,,,,,,,Mediator,1961.927,1964.927,g,1.468,,,1964.928,1964.928,,0,3,3,84,1,Zigarette,mediator1,,,,
,,879824,19,weiblich,2024-12-14_14h43.31.881,guess,2024.2.4,MacIntel,58.82352941,4148,,,,,,,,,,,,,,,,,,,,,,,,,,,,,,,,,,,,,,,,,,,,,,,,,,,,,,Golf,,,,,,,,,,,,,,,,,,,,,,,,,,,,,,,,,,,,1964.928,1968.927,,,,,,,,,,,,,,,,,,,,,,,,,,,,,,,,,,,,,,,,Mediator,1968.928,1971.927,g,1.015,,,1971.928,1971.928,,0,4,4,95,1,Ball,mediator1,,,,
,,879824,19,weiblich,2024-12-14_14h43.31.881,guess,2024.2.4,MacIntel,58.82352941,4148,,,,,,,,,,,,,,,,,,,,,,,,,,,,,,,,,,,,,,,,,,,,,,,,,,,,,,Beweis,,,,,,,,,,,,,,,,,,,,,,,,,,,,,,,,,,,,1971.928,1975.927,,,,,,,,,,,,,,,,,,,,,,,,,,,,,,,,,,,,,,,,Guess,1975.928,1978.927,g,1.779,,,1978.927,1978.928,,0,5,5,52,1,Gericht,target,,,,
,,879824,19,weiblich,2024-12-14_14h43.31.881,guess,2024.2.4,MacIntel,58.82352941,4148,,,,,,,,,,,,,,,,,,,,,,,,,,,,,,,,,,,,,,,,,,,,,,,,,,,,,,Safari,,,,,,,,,,,,,,,,,,,,,,,,,,,,,,,,,,,,1978.928,1982.927,,,,,,,,,,,,,,,,,,,,,,,,,,,,,,,,,,,,,,,,,1982.928,1985.927,g,2.466,,,1985.927,1985.927,,0,6,6,20,1,Ausflug,target,,,,
,,879824,19,weiblich,2024-12-14_14h43.31.881,guess,2024.2.4,MacIntel,58.82352941,4148,,,,,,,,,,,,,,,,,,,,,,,,,,,,,,,,,,,,,,,,,,,,,,,,,,,,,,Leistung,,,,,,,,,,,,,,,,,,,,,,,,,,,,,,,,,,,,1985.928,1989.927,,,,,,,,,,,,,,,,,,,,,,,,,,,,,,,,,,,,,,,,Mediator,1989.928,1992.927,g,0.701,,,1992.927,1992.928,,0,7,7,83,1,Ziel,mediator1,,,,
,,879824,19,weiblich,2024-12-14_14h43.31.881,guess,2024.2.4,MacIntel,58.82352941,4148,,,,,,,,,,,,,,,,,,,,,,,,,,,,,,,,,,,,,,,,,,,,,,,,,,,,,,Definition,,,,,,,,,,,,,,,,,,,,,,,,,,,,,,,,,,,,1992.928,1996.927,,,,,,,,,,,,,,,,,,,,,,,,,,,,,,,,,,,,,,,,Read,1996.928,1999.927,g,1.031,,,1999.928,1999.928,,0,8,8,2,1,Begriff,target,,,,
,,879824,19,weiblich,2024-12-14_14h43.31.881,guess,2024.2.4,MacIntel,58.82352941,4148,,,,,,,,,,,,,,,,,,,,,,,,,,,,,,,,,,,,,,,,,,,,,,,,,,,,,,Tänzer,,,,,,,,,,,,,,,,,,,,,,,,,,,,,,,,,,,,1999.928,2003.926,,,,,,,,,,,,,,,,,,,,,,,,,,,,,,,,,,,,,,,,Guess,2003.927,2006.926,f,1.614,,,2006.926,2006.926,,0,9,9,42,1,Musik,target,,,,
,,879824,19,weiblich,2024-12-14_14h43.31.881,guess,2024.2.4,MacIntel,58.82352941,4148,,,,,,,,,,,,,,,,,,,,,,,,,,,,,,,,,,,,,,,,,,,,,,,,,,,,,,Scheidung,,,,,,,,,,,,,,,,,,,,,,,,,,,,,,,,,,,,2006.927,2010.927,,,,,,,,,,,,,,,,,,,,,,,,,,,,,,,,,,,,,,,,Mediator,2010.928,2013.927,f,1.93,,,2013.927,2013.927,,0,10,10,109,1,Trennung,mediator2,,,,
,,879824,19,weiblich,2024-12-14_14h43.31.881,guess,2024.2.4,MacIntel,58.82352941,4148,,,,,,,,,,,,,,,,,,,,,,,,,,,,,,,,,,,,,,,,,,,,,,,,,,,,,,Service,,,,,,,,,,,,,,,,,,,,,,,,,,,,,,,,,,,,2013.928,2017.927,,,,,,,,,,,,,,,,,,,,,,,,,,,,,,,,,,,,,,,,,2017.927,2020.927,f,1.289,,,2020.927,2020.927,,0,11,11,8,1,Kunde,target,,,,
,,879824,19,weiblich,2024-12-14_14h43.31.881,guess,2024.2.4,MacIntel,58.82352941,4148,,,,,,,,,,,,,,,,,,,,,,,,,,,,,,,,,,,,,,,,,,,,,,,,,,,,,,Experiment,,,,,,,,,,,,,,,,,,,,,,,,,,,,,,,,,,,,2020.928,2024.927,,,,,,,,,,,,,,,,,,,,,,,,,,,,,,,,,,,,,,,,Mediator,2024.928,2027.926,g,1.681,,,2027.926,2027.927,,0,12,12,105,1,Labor,mediator2,,,,
,,879824,19,weiblich,2024-12-14_14h43.31.881,guess,2024.2.4,MacIntel,58.82352941,4148,,,,,,,,,,,,,,,,,,,,,,,,,,,,,,,,,,,,,,,,,,,,,,,,,,,,,,Schauspielerin,,,,,,,,,,,,,,,,,,,,,,,,,,,,,,,,,,,,2027.927,2031.927,,,,,,,,,,,,,,,,,,,,,,,,,,,,,,,,,,,,,,,,,2031.928,2034.927,f,0.933,,,2034.927,2034.927,,0,13,13,66,1,Frau,target,,,,
,,879824,19,weiblich,2024-12-14_14h43.31.881,guess,2024.2.4,MacIntel,58.82352941,4148,,,,,,,,,,,,,,,,,,,,,,,,,,,,,,,,,,,,,,,,,,,,,,,,,,,,,,Service,,,,,,,,,,,,,,,,,,,,,,,,,,,,,,,,,,,,2034.928,2038.926,,,,,,,,,,,,,,,,,,,,,,,,,,,,,,,,,,,,,,,,Mediator,2038.927,2041.927,g,1.169,,,2041.927,2041.927,,0,14,14,86,1,Hilfe,mediator1,,,,
,,879824,19,weiblich,2024-12-14_14h43.31.881,guess,2024.2.4,MacIntel,58.82352941,4148,,,,,,,,,,,,,,,,,,,,,,,,,,,,,,,,,,,,,,,,,,,,,,,,,,,,,,Eingeweide,,,,,,,,,,,,,,,,,,,,,,,,,,,,,,,,,,,,2041.927,2045.927,,,,,,,,,,,,,,,,,,,,,,,,,,,,,,,,,,,,,,,,,2045.927,2048.927,f,0.89,,,2048.927,2048.927,,0,15,15,28,1,Organ,target,,,,
,,879824,19,weiblich,2024-12-14_14h43.31.881,guess,2024.2.4,MacIntel,58.82352941,4148,,,,,,,,,,,,,,,,,,,,,,,,,,,,,,,,,,,,,,,,,,,,,,,,,,,,,,Kamin,,,,,,,,,,,,,,,,,,,,,,,,,,,,,,,,,,,,2048.927,2052.926,,,,,,,,,,,,,,,,,,,,,,,,,,,,,,,,,,,,,,,,Read,2052.927,2055.927,g,0.899,,,2055.927,2055.927,,0,16,16,58,1,Ziegel,target,,,,
,,879824,19,weiblich,2024-12-14_14h43.31.881,guess,2024.2.4,MacIntel,58.82352941,4148,,,,,,,,,,,,,,,,,,,,,,,,,,,,,,,,,,,,,,,,,,,,,,,,,,,,,,Scheidung,,,,,,,,,,,,,,,,,,,,,,,,,,,,,,,,,,,,2055.928,2059.926,,,,,,,,,,,,,,,,,,,,,,,,,,,,,,,,,,,,,,,,Mediator,2059.927,2062.926,,,,,2062.927,2062.927,,0,17,17,85,1,Ehe,mediator1,,,,
,,879824,19,weiblich,2024-12-14_14h43.31.881,guess,2024.2.4,MacIntel,58.82352941,4148,,,,,,,,,,,,,,,,,,,,,,,,,,,,,,,,,,,,,,,,,,,,,,,,,,,,,,Definition,,,,,,,,,,,,,,,,,,,,,,,,,,,,,,,,,,,,2062.927,2066.926,,,,,,,,,,,,,,,,,,,,,,,,,,,,,,,,,,,,,,,,Mediator,2066.927,2069.926,g,1.348,,,2069.927,2069.927,,0,18,18,80,1,Erklärung,mediator1,,,,
,,879824,19,weiblich,2024-12-14_14h43.31.881,guess,2024.2.4,MacIntel,58.82352941,4148,,,,,,,,,,,,,,,,,,,,,,,,,,,,,,,,,,,,,,,,,,,,,,,,,,,,,,Helm,,,,,,,,,,,,,,,,,,,,,,,,,,,,,,,,,,,,2069.927,2073.926,,,,,,,,,,,,,,,,,,,,,,,,,,,,,,,,,,,,,,,,Guess,2073.927,2076.926,f,2.216,,,2076.927,2076.927,,0,19,19,56,1,Kopf,target,,,,
,,879824,19,weiblich,2024-12-14_14h43.31.881,guess,2024.2.4,MacIntel,58.82352941,4148,,,,,,,,,,,,,,,,,,,,,,,,,,,,,,,,,,,,,,,,,,,,,,,,,,,,,,Definition,,,,,,,,,,,,,,,,,,,,,,,,,,,,,,,,,,,,2076.927,2080.926,,,,,,,,,,,,,,,,,,,,,,,,,,,,,,,,,,,,,,,,Mediator,2080.928,2083.926,g,2.282,,,2083.927,2083.927,,0,20,20,104,1,Bedeutung,mediator2,,,,
,,879824,19,weiblich,2024-12-14_14h43.31.881,guess,2024.2.4,MacIntel,58.82352941,4148,,,,,,,,,,,,,,,,,,,,,,,,,,,,,,,,,,,,,,,,,,,,,,,,,,,,,,Rauch,,,,,,,,,,,,,,,,,,,,,,,,,,,,,,,,,,,,2083.927,2087.926,,,,,,,,,,,,,,,,,,,,,,,,,,,,,,,,,,,,,,,,,2087.927,2090.926,g,2.284,,,2090.926,2090.927,,0,21,21,6,1,Nebel,target,,,,
,,879824,19,weiblich,2024-12-14_14h43.31.881,guess,2024.2.4,MacIntel,58.82352941,4148,,,,,,,,,,,,,,,,,,,,,,,,,,,,,,,,,,,,,,,,,,,,,,,,,,,,,,Vampir,,,,,,,,,,,,,,,,,,,,,,,,,,,,,,,,,,,,2090.927,2094.926,,,,,,,,,,,,,,,,,,,,,,,,,,,,,,,,,,,,,,,,Mediator,2094.928,2097.926,f,2.811,,,2097.926,2097.926,,0,22,22,124,1,Fledermaus,mediator2,,,,
,,879824,19,weiblich,2024-12-14_14h43.31.881,guess,2024.2.4,MacIntel,58.82352941,4148,,,,,,,,,,,,,,,,,,,,,,,,,,,,,,,,,,,,,,,,,,,,,,,,,,,,,,Küche,,,,,,,,,,,,,,,,,,,,,,,,,,,,,,,,,,,,2097.927,2101.926,,,,,,,,,,,,,,,,,,,,,,,,,,,,,,,,,,,,,,,,,2101.927,2104.926,,,,,2104.926,2104.926,,0,23,23,18,1,Tisch,target,,,,
,,879824,19,weiblich,2024-12-14_14h43.31.881,guess,2024.2.4,MacIntel,58.82352941,4148,,,,,,,,,,,,,,,,,,,,,,,,,,,,,,,,,,,,,,,,,,,,,,,,,,,,,,Tee,,,,,,,,,,,,,,,,,,,,,,,,,,,,,,,,,,,,2104.927,2108.926,,,,,,,,,,,,,,,,,,,,,,,,,,,,,,,,,,,,,,,,Read,2108.927,2111.926,,,,,2111.926,2111.927,,0,24,24,71,1,Blätter,target,,,,
,,879824,19,weiblich,2024-12-14_14h43.31.881,guess,2024.2.4,MacIntel,58.82352941,4148,,,,,,,,,,,,,,,,,,,,,,,,,,,,,,,,,,,,,,,,,,,,,,,,,,,,,,Anführer,,,,,,,,,,,,,,,,,,,,,,,,,,,,,,,,,,,,2111.927,2115.926,,,,,,,,,,,,,,,,,,,,,,,,,,,,,,,,,,,,,,,,Mediator,2115.927,2118.926,g,1.516,,,2118.926,2118.927,,0,25,25,90,1,Anhänger,mediator1,,,,
,,879824,19,weiblich,2024-12-14_14h43.31.881,guess,2024.2.4,MacIntel,58.82352941,4148,,,,,,,,,,,,,,,,,,,,,,,,,,,,,,,,,,,,,,,,,,,,,,,,,,,,,,Vergangenheit,,,,,,,,,,,,,,,,,,,,,,,,,,,,,,,,,,,,2118.927,2122.926,,,,,,,,,,,,,,,,,,,,,,,,,,,,,,,,,,,,,,,,Mediator,2122.927,2125.925,g,1.352,,,2125.925,2125.926,,0,26,26,125,1,Gegenwart,mediator2,,,,
,,879824,19,weiblich,2024-12-14_14h43.31.881,guess,2024.2.4,MacIntel,58.82352941,4148,,,,,,,,,,,,,,,,,,,,,,,,,,,,,,,,,,,,,,,,,,,,,,,,,,,,,,Experiment,,,,,,,,,,,,,,,,,,,,,,,,,,,,,,,,,,,,2125.926,2129.926,,,,,,,,,,,,,,,,,,,,,,,,,,,,,,,,,,,,,,,,Mediator,2129.927,2132.926,g,1.633,,,2132.926,2132.927,,0,27,27,81,1,Test,mediator1,,,,
,,879824,19,weiblich,2024-12-14_14h43.31.881,guess,2024.2.4,MacIntel,58.82352941,4148,,,,,,,,,,,,,,,,,,,,,,,,,,,,,,,,,,,,,,,,,,,,,,,,,,,,,,Vergangenheit,,,,,,,,,,,,,,,,,,,,,,,,,,,,,,,,,,,,2132.927,2136.926,,,,,,,,,,,,,,,,,,,,,,,,,,,,,,,,,,,,,,,,Mediator,2136.927,2139.926,f,1.713,,,2139.926,2139.927,,0,28,28,101,1,Zukunft,mediator1,,,,
,,879824,19,weiblich,2024-12-14_14h43.31.881,guess,2024.2.4,MacIntel,58.82352941,4148,,,,,,,,,,,,,,,,,,,,,,,,,,,,,,,,,,,,,,,,,,,,,,,,,,,,,,Experiment,,,,,,,,,,,,,,,,,,,,,,,,,,,,,,,,,,,,2139.927,2143.926,,,,,,,,,,,,,,,,,,,,,,,,,,,,,,,,,,,,,,,,Guess,2143.927,2146.926,,,,,2146.926,2146.926,,0,29,29,3,1,Versuch,target,,,,
,,879824,19,weiblich,2024-12-14_14h43.31.881,guess,2024.2.4,MacIntel,58.82352941,4148,,,,,,,,,,,,,,,,,,,,,,,,,,,,,,,,,,,,,,,,,,,,,,,,,,,,,,Beutel,,,,,,,,,,,,,,,,,,,,,,,,,,,,,,,,,,,,2146.927,2150.926,,,,,,,,,,,,,,,,,,,,,,,,,,,,,,,,,,,,,,,,,2150.927,2153.926,g,2.553,,,2153.926,2153.926,,0,30,30,13,1,Sack,target,,,,
,,879824,19,weiblich,2024-12-14_14h43.31.881,guess,2024.2.4,MacIntel,58.82352941,4148,,,,,,,,,,,,,,,,,,,,,,,,,,,,,,,,,,,,,,,,,,,,,,,,,,,,,,Shampoo,,,,,,,,,,,,,,,,,,,,,,,,,,,,,,,,,,,,2153.926,2157.926,,,,,,,,,,,,,,,,,,,,,,,,,,,,,,,,,,,,,,,,Mediator,2157.926,2160.926,f,1.682,,,2160.926,2160.926,,0,31,31,111,1,Haare,mediator2,,,,
,,879824,19,weiblich,2024-12-14_14h43.31.881,guess,2024.2.4,MacIntel,58.82352941,4148,,,,,,,,,,,,,,,,,,,,,,,,,,,,,,,,,,,,,,,,,,,,,,,,,,,,,,Tradition,,,,,,,,,,,,,,,,,,,,,,,,,,,,,,,,,,,,2160.926,2164.925,,,,,,,,,,,,,,,,,,,,,,,,,,,,,,,,,,,,,,,,Read,2164.926,2167.926,f,2.302,,,2167.926,2167.926,,0,32,32,45,1,Weihnachten,target,,,,
,,879824,19,weiblich,2024-12-14_14h43.31.881,guess,2024.2.4,MacIntel,58.82352941,4148,,,,,,,,,,,,,,,,,,,,,,,,,,,,,,,,,,,,,,,,,,,,,,,,,,,,,,Vampir,,,,,,,,,,,,,,,,,,,,,,,,,,,,,,,,,,,,2167.927,2171.925,,,,,,,,,,,,,,,,,,,,,,,,,,,,,,,,,,,,,,,,Mediator,2171.926,2174.926,f,2.134,,,2174.926,2174.927,,0,33,33,100,1,Blut,mediator1,,,,
,,879824,19,weiblich,2024-12-14_14h43.31.881,guess,2024.2.4,MacIntel,58.82352941,4148,,,,,,,,,,,,,,,,,,,,,,,,,,,,,,,,,,,,,,,,,,,,,,,,,,,,,,Mappe,,,,,,,,,,,,,,,,,,,,,,,,,,,,,,,,,,,,2174.928,2178.926,,,,,,,,,,,,,,,,,,,,,,,,,,,,,,,,,,,,,,,,Guess,2178.927,2181.925,g,2.704,,,2181.925,2181.925,,0,34,34,36,1,Buch,target,,,,
,,879824,19,weiblich,2024-12-14_14h43.31.881,guess,2024.2.4,MacIntel,58.82352941,4148,,,,,,,,,,,,,,,,,,,,,,,,,,,,,,,,,,,,,,,,,,,,,,,,,,,,,,Brise,,,,,,,,,,,,,,,,,,,,,,,,,,,,,,,,,,,,2181.926,2185.925,,,,,,,,,,,,,,,,,,,,,,,,,,,,,,,,,,,,,,,,,2185.926,2188.926,f,1.968,,,2188.926,2188.926,,0,35,35,25,1,Luft,target,,,,
,,879824,19,weiblich,2024-12-14_14h43.31.881,guess,2024.2.4,MacIntel,58.82352941,4148,,,,,,,,,,,,,,,,,,,,,,,,,,,,,,,,,,,,,,,,,,,,,,,,,,,,,,Gast,,,,,,,,,,,,,,,,,,,,,,,,,,,,,,,,,,,,2188.927,2192.926,,,,,,,,,,,,,,,,,,,,,,,,,,,,,,,,,,,,,,,,Mediator,2192.927,2195.925,f,2.596,,,2195.926,2195.926,,0,36,36,92,1,Freund,mediator1,,,,
,,879824,19,weiblich,2024-12-14_14h43.31.881,guess,2024.2.4,MacIntel,58.82352941,4148,,,,,,,,,,,,,,,,,,,,,,,,,,,,,,,,,,,,,,,,,,,,,,,,,,,,,,Leistung,,,,,,,,,,,,,,,,,,,,,,,,,,,,,,,,,,,,2195.926,2199.925,,,,,,,,,,,,,,,,,,,,,,,,,,,,,,,,,,,,,,,,Read,2199.927,2202.926,f,2.116,,,2202.926,2202.926,,0,37,37,5,1,Ehre,target,,,,
,,879824,19,weiblich,2024-12-14_14h43.31.881,guess,2024.2.4,MacIntel,58.82352941,4148,,,,,,,,,,,,,,,,,,,,,,,,,,,,,,,,,,,,,,,,,,,,,,,,,,,,,,Rasen,,,,,,,,,,,,,,,,,,,,,,,,,,,,,,,,,,,,2202.926,2206.925,,,,,,,,,,,,,,,,,,,,,,,,,,,,,,,,,,,,,,,,Mediator,2206.926,2209.925,g,1.939,,,2209.925,2209.926,,0,38,38,97,1,Mäher,mediator1,,,,
,,879824,19,weiblich,2024-12-14_14h43.31.881,guess,2024.2.4,MacIntel,58.82352941,4148,,,,,,,,,,,,,,,,,,,,,,,,,,,,,,,,,,,,,,,,,,,,,,,,,,,,,,Golf,,,,,,,,,,,,,,,,,,,,,,,,,,,,,,,,,,,,2209.926,2213.925,,,,,,,,,,,,,,,,,,,,,,,,,,,,,,,,,,,,,,,,Read,2213.926,2216.926,g,1.952,,,2216.926,2216.926,,0,39,39,17,1,Loch,target,,,,
,,879824,19,weiblich,2024-12-14_14h43.31.881,guess,2024.2.4,MacIntel,58.82352941,4148,,,,,,,,,,,,,,,,,,,,,,,,,,,,,,,,,,,,,,,,,,,,,,,,,,,,,,Geschwister,,,,,,,,,,,,,,,,,,,,,,,,,,,,,,,,,,,,2216.926,2220.925,,,,,,,,,,,,,,,,,,,,,,,,,,,,,,,,,,,,,,,,Mediator,2220.926,2223.924,f,2.951,,,2223.924,2223.925,,0,40,40,94,1,Bruder,mediator1,,,,
,,879824,19,weiblich,2024-12-14_14h43.31.881,guess,2024.2.4,MacIntel,58.82352941,4148,,,,,,,,,,,,,,,,,,,,,,,,,,,,,,,,,,,,,,,,,,,,,,,,,,,,,,Schnorchel,,,,,,,,,,,,,,,,,,,,,,,,,,,,,,,,,,,,2223.925,2227.924,,,,,,,,,,,,,,,,,,,,,,,,,,,,,,,,,,,,,,,,Guess,2227.925,2230.925,g,2.368,,,2230.925,2230.926,,0,41,41,67,1,Flossen,target,,,,
,,879824,19,weiblich,2024-12-14_14h43.31.881,guess,2024.2.4,MacIntel,58.82352941,4148,,,,,,,,,,,,,,,,,,,,,,,,,,,,,,,,,,,,,,,,,,,,,,,,,,,,,,Schuh,,,,,,,,,,,,,,,,,,,,,,,,,,,,,,,,,,,,2230.926,2234.925,,,,,,,,,,,,,,,,,,,,,,,,,,,,,,,,,,,,,,,,Read,2234.926,2237.925,g,1.615,,,2237.925,2237.925,,0,42,42,68,1,Stiefel,target,,,,
,,879824,19,weiblich,2024-12-14_14h43.31.881,guess,2024.2.4,MacIntel,58.82352941,4148,,,,,,,,,,,,,,,,,,,,,,,,,,,,,,,,,,,,,,,,,,,,,,,,,,,,,,Wein,,,,,,,,,,,,,,,,,,,,,,,,,,,,,,,,,,,,2237.926,2241.925,,,,,,,,,,,,,,,,,,,,,,,,,,,,,,,,,,,,,,,,Read,2241.926,2244.925,f,2.099,,,2244.925,2244.925,,0,43,43,74,1,Abendessen,target,,,,
,,879824,19,weiblich,2024-12-14_14h43.31.881,guess,2024.2.4,MacIntel,58.82352941,4148,,,,,,,,,,,,,,,,,,,,,,,,,,,,,,,,,,,,,,,,,,,,,,,,,,,,,,Geburtstag,,,,,,,,,,,,,,,,,,,,,,,,,,,,,,,,,,,,2244.926,2248.925,,,,,,,,,,,,,,,,,,,,,,,,,,,,,,,,,,,,,,,,Mediator,2248.927,2251.925,,,,,2251.925,2251.926,,0,44,44,93,1,Kuchen ,mediator1,,,,
,,879824,19,weiblich,2024-12-14_14h43.31.881,guess,2024.2.4,MacIntel,58.82352941,4148,,,,,,,,,,,,,,,,,,,,,,,,,,,,,,,,,,,,,,,,,,,,,,,,,,,,,,Vergangenheit,,,,,,,,,,,,,,,,,,,,,,,,,,,,,,,,,,,,2251.926,2255.925,,,,,,,,,,,,,,,,,,,,,,,,,,,,,,,,,,,,,,,,Guess,2255.926,2258.925,,,,,2258.925,2258.925,,0,45,45,23,1,Erinnerungen,target,,,,
,,879824,19,weiblich,2024-12-14_14h43.31.881,guess,2024.2.4,MacIntel,58.82352941,4148,,,,,,,,,,,,,,,,,,,,,,,,,,,,,,,,,,,,,,,,,,,,,,,,,,,,,,Schlüssel,,,,,,,,,,,,,,,,,,,,,,,,,,,,,,,,,,,,2258.925,2262.925,,,,,,,,,,,,,,,,,,,,,,,,,,,,,,,,,,,,,,,,,2262.926,2265.925,f,2.238,,,2265.925,2265.925,,0,46,46,40,1,Ring,target,,,,
,,879824,19,weiblich,2024-12-14_14h43.31.881,guess,2024.2.4,MacIntel,58.82352941,4148,,,,,,,,,,,,,,,,,,,,,,,,,,,,,,,,,,,,,,,,,,,,,,,,,,,,,,Scheidung,,,,,,,,,,,,,,,,,,,,,,,,,,,,,,,,,,,,2265.925,2269.925,,,,,,,,,,,,,,,,,,,,,,,,,,,,,,,,,,,,,,,,Guess,2269.926,2272.925,f,2.001,,,2272.925,2272.925,,0,47,47,7,1,Anwalt,target,,,,
,,879824,19,weiblich,2024-12-14_14h43.31.881,guess,2024.2.4,MacIntel,58.82352941,4148,,,,,,,,,,,,,,,,,,,,,,,,,,,,,,,,,,,,,,,,,,,,,,,,,,,,,,Fakt,,,,,,,,,,,,,,,,,,,,,,,,,,,,,,,,,,,,2272.926,2276.925,,,,,,,,,,,,,,,,,,,,,,,,,,,,,,,,,,,,,,,,Mediator,2276.926,2279.925,g,1.18,,,2279.925,2279.925,,0,48,48,82,1,Wahrheit,mediator1,,,,
,,879824,19,weiblich,2024-12-14_14h43.31.881,guess,2024.2.4,MacIntel,58.82352941,4148,,,,,,,,,,,,,,,,,,,,,,,,,,,,,,,,,,,,,,,,,,,,,,,,,,,,,,Schwan,,,,,,,,,,,,,,,,,,,,,,,,,,,,,,,,,,,,2279.926,2283.925,,,,,,,,,,,,,,,,,,,,,,,,,,,,,,,,,,,,,,,,,2283.926,2286.925,f,1.067,,,2286.925,2286.925,,0,49,49,69,1,Taube,target,,,,
,,879824,19,weiblich,2024-12-14_14h43.31.881,guess,2024.2.4,MacIntel,58.82352941,4148,,,,,,,,,,,,,,,,,,,,,,,,,,,,,,,,,,,,,,,,,,,,,,,,,,,,,,Beutel,,,,,,,,,,,,,,,,,,,,,,,,,,,,,,,,,,,,2286.926,2290.925,,,,,,,,,,,,,,,,,,,,,,,,,,,,,,,,,,,,,,,,Mediator,2290.926,2293.925,g,2.02,,,2293.925,2293.925,,0,50,50,91,1,Tasche,mediator1,,,,
,,879824,19,weiblich,2024-12-14_14h43.31.881,guess,2024.2.4,MacIntel,58.82352941,4148,,,,,,,,,,,,,,,,,,,,,,,,,,,,,,,,,,,,,,,,,,,,,,,,,,,,,,Mauer,,,,,,,,,,,,,,,,,,,,,,,,,,,,,,,,,,,,2293.925,2297.925,,,,,,,,,,,,,,,,,,,,,,,,,,,,,,,,,,,,,,,,,2297.926,2300.925,g,1.883,,,2300.926,2300.926,,0,51,51,64,1,Straße,target,,,,
,,879824,19,weiblich,2024-12-14_14h43.31.881,guess,2024.2.4,MacIntel,58.82352941,4148,,,,,,,,,,,,,,,,,,,,,,,,,,,,,,,,,,,,,,,,,,,,,,,,,,,,,,Juwel,,,,,,,,,,,,,,,,,,,,,,,,,,,,,,,,,,,,2300.927,2304.925,,,,,,,,,,,,,,,,,,,,,,,,,,,,,,,,,,,,,,,,Guess,2304.926,2307.925,g,1.746,,,2307.925,2307.925,,0,52,52,57,1,Gold,target,,,,
,,879824,19,weiblich,2024-12-14_14h43.31.881,guess,2024.2.4,MacIntel,58.82352941,4148,,,,,,,,,,,,,,,,,,,,,,,,,,,,,,,,,,,,,,,,,,,,,,,,,,,,,,Publikum,,,,,,,,,,,,,,,,,,,,,,,,,,,,,,,,,,,,2307.926,2311.924,,,,,,,,,,,,,,,,,,,,,,,,,,,,,,,,,,,,,,,,Read,2311.925,2314.925,f,2.681,,,2314.925,2314.925,,0,53,53,37,1,Applaus,target,,,,
,,879824,19,weiblich,2024-12-14_14h43.31.881,guess,2024.2.4,MacIntel,58.82352941,4148,,,,,,,,,,,,,,,,,,,,,,,,,,,,,,,,,,,,,,,,,,,,,,,,,,,,,,Shampoo,,,,,,,,,,,,,,,,,,,,,,,,,,,,,,,,,,,,2314.926,2318.924,,,,,,,,,,,,,,,,,,,,,,,,,,,,,,,,,,,,,,,,,2318.926,2321.924,g,1.115,,,2321.925,2321.925,,0,54,54,9,1,Seife,target,,,,
,,879824,19,weiblich,2024-12-14_14h43.31.881,guess,2024.2.4,MacIntel,58.82352941,4148,,,,,,,,,,,,,,,,,,,,,,,,,,,,,,,,,,,,,,,,,,,,,,,,,,,,,,Beutel,,,,,,,,,,,,,,,,,,,,,,,,,,,,,,,,,,,,2321.925,2325.924,,,,,,,,,,,,,,,,,,,,,,,,,,,,,,,,,,,,,,,,Mediator,2325.925,2328.924,f,1.567,,,2328.925,2328.925,,0,55,55,115,1,Känguru,mediator2,,,,
,,879824,19,weiblich,2024-12-14_14h43.31.881,guess,2024.2.4,MacIntel,58.82352941,4148,,,,,,,,,,,,,,,,,,,,,,,,,,,,,,,,,,,,,,,,,,,,,,,,,,,,,,Blumen,,,,,,,,,,,,,,,,,,,,,,,,,,,,,,,,,,,,2328.925,2332.924,,,,,,,,,,,,,,,,,,,,,,,,,,,,,,,,,,,,,,,,,2332.926,2335.924,g,2.203,,,2335.924,2335.924,,0,56,56,53,1,Bouquet,target,,,,
,,879824,19,weiblich,2024-12-14_14h43.31.881,guess,2024.2.4,MacIntel,58.82352941,4148,,,,,,,,,,,,,,,,,,,,,,,,,,,,,,,,,,,,,,,,,,,,,,,,,,,,,,Geburtstag,,,,,,,,,,,,,,,,,,,,,,,,,,,,,,,,,,,,2335.924,2339.924,,,,,,,,,,,,,,,,,,,,,,,,,,,,,,,,,,,,,,,,Guess,2339.926,2342.925,,,,,2342.925,2342.925,,0,57,57,15,1,Kerze,target,,,,
,,879824,19,weiblich,2024-12-14_14h43.31.881,guess,2024.2.4,MacIntel,58.82352941,4148,,,,,,,,,,,,,,,,,,,,,,,,,,,,,,,,,,,,,,,,,,,,,,,,,,,,,,Soldat,,,,,,,,,,,,,,,,,,,,,,,,,,,,,,,,,,,,2342.926,2346.924,,,,,,,,,,,,,,,,,,,,,,,,,,,,,,,,,,,,,,,,Mediator,2346.925,2349.924,g,2.182,,,2349.924,2349.924,,0,58,58,112,1,Armee,mediator2,,,,
,,879824,19,weiblich,2024-12-14_14h43.31.881,guess,2024.2.4,MacIntel,58.82352941,4148,,,,,,,,,,,,,,,,,,,,,,,,,,,,,,,,,,,,,,,,,,,,,,,,,,,,,,Anführer,,,,,,,,,,,,,,,,,,,,,,,,,,,,,,,,,,,,2349.925,2353.924,,,,,,,,,,,,,,,,,,,,,,,,,,,,,,,,,,,,,,,,Read,2353.925,2356.924,f,1.499,,,2356.924,2362.441,space,0,59,59,12,1,Boss,target,5.502,,,
,,879824,19,weiblich,2024-12-14_14h43.31.881,guess,2024.2.4,MacIntel,58.82352941,4148,,,,,,,,,,,,,,,,,,,,,,,,,,,,,,,,,,,,,,,,,,,,,,,,,,,,,,Floh,,,,,,,,,,,,,,,,,,,,,,,,,,,,,,,,,,,,2362.442,2366.44,,,,,,,,,,,,,,,,,,,,,,,,,,,,,,,,,,,,,,,,,2366.441,2369.441,f,0.982,,,2369.441,2369.441,,0,60,60,29,1,Käfer,target,,,,
,,879824,19,weiblich,2024-12-14_14h43.31.881,guess,2024.2.4,MacIntel,58.82352941,4148,,,,,,,,,,,,,,,,,,,,,,,,,,,,,,,,,,,,,,,,,,,,,,,,,,,,,,Geschwister,,,,,,,,,,,,,,,,,,,,,,,,,,,,,,,,,,,,2369.442,2373.441,,,,,,,,,,,,,,,,,,,,,,,,,,,,,,,,,,,,,,,,Mediator,2373.442,2376.441,f,1.097,,,2376.441,2376.441,,0,61,61,118,1,Schwester,mediator2,,,,
,,879824,19,weiblich,2024-12-14_14h43.31.881,guess,2024.2.4,MacIntel,58.82352941,4148,,,,,,,,,,,,,,,,,,,,,,,,,,,,,,,,,,,,,,,,,,,,,,,,,,,,,,Sitzgurt,,,,,,,,,,,,,,,,,,,,,,,,,,,,,,,,,,,,2376.441,2380.441,,,,,,,,,,,,,,,,,,,,,,,,,,,,,,,,,,,,,,,,Mediator,2380.442,2383.441,g,1.464,,,2383.441,2383.441,,0,62,62,99,1,Auto,mediator',,,,
,,879824,19,weiblich,2024-12-14_14h43.31.881,guess,2024.2.4,MacIntel,58.82352941,4148,,,,,,,,,,,,,,,,,,,,,,,,,,,,,,,,,,,,,,,,,,,,,,,,,,,,,,Klebstoff,,,,,,,,,,,,,,,,,,,,,,,,,,,,,,,,,,,,2383.441,2387.441,,,,,,,,,,,,,,,,,,,,,,,,,,,,,,,,,,,,,,,,Guess,2387.442,2390.441,g,1.616,,,2390.441,2390.441,,0,63,63,62,1,Papier,target,,,,
,,879824,19,weiblich,2024-12-14_14h43.31.881,guess,2024.2.4,MacIntel,58.82352941,4148,,,,,,,,,,,,,,,,,,,,,,,,,,,,,,,,,,,,,,,,,,,,,,,,,,,,,,Bar,,,,,,,,,,,,,,,,,,,,,,,,,,,,,,,,,,,,2390.442,2394.44,,,,,,,,,,,,,,,,,,,,,,,,,,,,,,,,,,,,,,,,Guess,2394.441,2397.441,g,2.264,,,2397.441,2397.441,,0,64,64,51,1,Alkohol,target,,,,
,,879824,19,weiblich,2024-12-14_14h43.31.881,guess,2024.2.4,MacIntel,58.82352941,4148,,,,,,,,,,,,,,,,,,,,,,,,,,,,,,,,,,,,,,,,,,,,,,,,,,,,,,Chips,,,,,,,,,,,,,,,,,,,,,,,,,,,,,,,,,,,,2397.441,2401.441,,,,,,,,,,,,,,,,,,,,,,,,,,,,,,,,,,,,,,,,,2401.442,2404.441,g,2.665,,,2404.441,2404.441,,0,65,65,1,1,Salz,target,,,,
,,879824,19,weiblich,2024-12-14_14h43.31.881,guess,2024.2.4,MacIntel,58.82352941,4148,,,,,,,,,,,,,,,,,,,,,,,,,,,,,,,,,,,,,,,,,,,,,,,,,,,,,,Safari,,,,,,,,,,,,,,,,,,,,,,,,,,,,,,,,,,,,2404.442,2408.44,,,,,,,,,,,,,,,,,,,,,,,,,,,,,,,,,,,,,,,,Mediator,2408.442,2411.441,f,2.78,,,2411.441,2411.441,,0,66,66,122,1,Dschungel,mediator2,,,,
,,879824,19,weiblich,2024-12-14_14h43.31.881,guess,2024.2.4,MacIntel,58.82352941,4148,,,,,,,,,,,,,,,,,,,,,,,,,,,,,,,,,,,,,,,,,,,,,,,,,,,,,,Teller,,,,,,,,,,,,,,,,,,,,,,,,,,,,,,,,,,,,2411.441,2415.441,,,,,,,,,,,,,,,,,,,,,,,,,,,,,,,,,,,,,,,,,2415.442,2418.44,g,1.248,,,2418.44,2418.441,,0,67,67,44,1,Gabel,target,,,,
,,879824,19,weiblich,2024-12-14_14h43.31.881,guess,2024.2.4,MacIntel,58.82352941,4148,,,,,,,,,,,,,,,,,,,,,,,,,,,,,,,,,,,,,,,,,,,,,,,,,,,,,,Teleskop,,,,,,,,,,,,,,,,,,,,,,,,,,,,,,,,,,,,2418.441,2422.441,,,,,,,,,,,,,,,,,,,,,,,,,,,,,,,,,,,,,,,,Read,2422.442,2425.44,g,2.212,,,2425.441,2425.441,,0,68,68,43,1,Mikroskop,target,,,,
,,879824,19,weiblich,2024-12-14_14h43.31.881,guess,2024.2.4,MacIntel,58.82352941,4148,,,,,,,,,,,,,,,,,,,,,,,,,,,,,,,,,,,,,,,,,,,,,,,,,,,,,,Zimt,,,,,,,,,,,,,,,,,,,,,,,,,,,,,,,,,,,,2425.441,2429.44,,,,,,,,,,,,,,,,,,,,,,,,,,,,,,,,,,,,,,,,Guess,2429.441,2432.44,f,2.6,,,2432.44,2432.441,,0,69,69,77,1,Rolle,target,,,,
,,879824,19,weiblich,2024-12-14_14h43.31.881,guess,2024.2.4,MacIntel,58.82352941,4148,,,,,,,,,,,,,,,,,,,,,,,,,,,,,,,,,,,,,,,,,,,,,,,,,,,,,,Rasen,,,,,,,,,,,,,,,,,,,,,,,,,,,,,,,,,,,,2432.441,2436.44,,,,,,,,,,,,,,,,,,,,,,,,,,,,,,,,,,,,,,,,,2436.442,2439.44,g,2.767,,,2439.441,2439.441,,0,70,70,19,1,Pflege,target,,,,
,,879824,19,weiblich,2024-12-14_14h43.31.881,guess,2024.2.4,MacIntel,58.82352941,4148,,,,,,,,,,,,,,,,,,,,,,,,,,,,,,,,,,,,,,,,,,,,,,,,,,,,,,Winkel,,,,,,,,,,,,,,,,,,,,,,,,,,,,,,,,,,,,2439.441,2443.44,,,,,,,,,,,,,,,,,,,,,,,,,,,,,,,,,,,,,,,,,2443.443,2446.44,g,1.734,,,2446.441,2446.441,,0,71,71,75,1,Kurve,target,,,,
,,879824,19,weiblich,2024-12-14_14h43.31.881,guess,2024.2.4,MacIntel,58.82352941,4148,,,,,,,,,,,,,,,,,,,,,,,,,,,,,,,,,,,,,,,,,,,,,,,,,,,,,,Vers,,,,,,,,,,,,,,,,,,,,,,,,,,,,,,,,,,,,2446.442,2450.44,,,,,,,,,,,,,,,,,,,,,,,,,,,,,,,,,,,,,,,,,2450.442,2453.44,g,2.031,,,2453.44,2453.441,,0,72,72,46,1,Poesie,target,,,,
,,879824,19,weiblich,2024-12-14_14h43.31.881,guess,2024.2.4,MacIntel,58.82352941,4148,,,,,,,,,,,,,,,,,,,,,,,,,,,,,,,,,,,,,,,,,,,,,,,,,,,,,,Rasen,,,,,,,,,,,,,,,,,,,,,,,,,,,,,,,,,,,,2453.442,2457.439,,,,,,,,,,,,,,,,,,,,,,,,,,,,,,,,,,,,,,,,Mediator,2457.44,2460.44,f,1.365,,,2460.44,2460.44,,0,73,73,121,1,Gras,mediator2,,,,
,,879824,19,weiblich,2024-12-14_14h43.31.881,guess,2024.2.4,MacIntel,58.82352941,4148,,,,,,,,,,,,,,,,,,,,,,,,,,,,,,,,,,,,,,,,,,,,,,,,,,,,,,Frieden,,,,,,,,,,,,,,,,,,,,,,,,,,,,,,,,,,,,2460.441,2464.441,,,,,,,,,,,,,,,,,,,,,,,,,,,,,,,,,,,,,,,,,2464.441,2467.439,g,2.214,,,2467.44,2467.44,,0,74,74,30,1,Harmonie,target,,,,
,,879824,19,weiblich,2024-12-14_14h43.31.881,guess,2024.2.4,MacIntel,58.82352941,4148,,,,,,,,,,,,,,,,,,,,,,,,,,,,,,,,,,,,,,,,,,,,,,,,,,,,,,Leistung,,,,,,,,,,,,,,,,,,,,,,,,,,,,,,,,,,,,2467.44,2471.44,,,,,,,,,,,,,,,,,,,,,,,,,,,,,,,,,,,,,,,,Mediator,2471.441,2474.446,g,1.912,,,2474.453,2474.454,,0,75,75,107,1,Erfolg,mediator2,,,,
,,879824,19,weiblich,2024-12-14_14h43.31.881,guess,2024.2.4,MacIntel,58.82352941,4148,,,,,,,,,,,,,,,,,,,,,,,,,,,,,,,,,,,,,,,,,,,,,,,,,,,,,,Fakt,,,,,,,,,,,,,,,,,,,,,,,,,,,,,,,,,,,,2474.458,2478.456,,,,,,,,,,,,,,,,,,,,,,,,,,,,,,,,,,,,,,,,,2478.501,2481.456,g,1.905,,,2481.458,2481.458,,0,76,76,4,1,Wissen,target,,,,
,,879824,19,weiblich,2024-12-14_14h43.31.881,guess,2024.2.4,MacIntel,58.82352941,4148,,,,,,,,,,,,,,,,,,,,,,,,,,,,,,,,,,,,,,,,,,,,,,,,,,,,,,Kante,,,,,,,,,,,,,,,,,,,,,,,,,,,,,,,,,,,,2481.459,2485.457,,,,,,,,,,,,,,,,,,,,,,,,,,,,,,,,,,,,,,,,Read,2485.459,2488.457,g,2.202,,,2488.457,2488.457,,0,77,77,59,1,Messer,target,,,,
,,879824,19,weiblich,2024-12-14_14h43.31.881,guess,2024.2.4,MacIntel,58.82352941,4148,,,,,,,,,,,,,,,,,,,,,,,,,,,,,,,,,,,,,,,,,,,,,,,,,,,,,,Königreich,,,,,,,,,,,,,,,,,,,,,,,,,,,,,,,,,,,,2488.457,2492.457,,,,,,,,,,,,,,,,,,,,,,,,,,,,,,,,,,,,,,,,,2492.458,2495.457,g,1.8,,,2495.457,2495.458,,0,78,78,63,1,Schloss,target,,,,
,,879824,19,weiblich,2024-12-14_14h43.31.881,guess,2024.2.4,MacIntel,58.82352941,4148,,,,,,,,,,,,,,,,,,,,,,,,,,,,,,,,,,,,,,,,,,,,,,,,,,,,,,Humor,,,,,,,,,,,,,,,,,,,,,,,,,,,,,,,,,,,,2495.459,2499.459,,,,,,,,,,,,,,,,,,,,,,,,,,,,,,,,,,,,,,,,,2499.462,2502.456,f,2.908,,,2502.456,2502.456,,0,79,79,33,1,Komödie,target,,,,
,,879824,19,weiblich,2024-12-14_14h43.31.881,guess,2024.2.4,MacIntel,58.82352941,4148,,,,,,,,,,,,,,,,,,,,,,,,,,,,,,,,,,,,,,,,,,,,,,,,,,,,,,Geschwister,,,,,,,,,,,,,,,,,,,,,,,,,,,,,,,,,,,,2502.457,2506.456,,,,,,,,,,,,,,,,,,,,,,,,,,,,,,,,,,,,,,,,,2506.457,2509.456,f,1.484,,,2509.456,2509.457,,0,80,80,16,1,Eltern,target,,,,
,,879824,19,weiblich,2024-12-14_14h43.31.881,guess,2024.2.4,MacIntel,58.82352941,4148,,,,,,,,,,,,,,,,,,,,,,,,,,,,,,,,,,,,,,,,,,,,,,,,,,,,,,Golf,,,,,,,,,,,,,,,,,,,,,,,,,,,,,,,,,,,,2509.457,2513.457,,,,,,,,,,,,,,,,,,,,,,,,,,,,,,,,,,,,,,,,Mediator,2513.464,2516.457,g,1.722,,,2516.457,2516.457,,0,81,81,119,1,Schläger,mediator2,,,,
